"trial_type","trial_index","time_elapsed","internal_node_id","value","rt","stimulus","key_press","responses","success","hand","test","gap","finger","cue","con","correct_response","correct"
"pavlovia","0","3","0.0-0.0","","","","","","","","","","","","","",""
"call-function","1","4","0.0-1.0","","","","","","","","","","","","","",""
"html-keyboard-response","2","34369","0.0-2.0","","34363.12500000349","<div class = 'my_window'><p><h1>Welcome!</h1><br><p><p>This experiment is adminterested by Carl Michael Galang (McMaster University), Dr. Emiel Cracco (Ghent University), Dr. Marcel Brass (Humboldt University of Berlin), & Dr. Sukhvinder Obhi (McMaster University).</p><p>The purpose of this study is to explore basic perceptual processing mechanisms.</p><p>Information gathered during this study will be written up for publication in an academic journal. While there are no direct benefits to you taking part in this study (other than learning more about the research topic and getting paid on Prolific), the results of this study will provide us with a better understanding of perceptual and sensory processes. To learn about this study, particularly in the terms of any associated risks or harms, how confidentiality and anonymity will be handled, withdrawal procedures, incentives that are promised, how to obtain information about the results, etc., please read the accompanying letter of information - <a href='LOI.pdf' target='_blank'>Click Here</a> (this will open a new window).</p><p>This study should take around 10min to complete.</p><p>If you have questions or need more information about the study itself, please contact me at: galangc@mcmaster.ca. This study has been reviewed by the McMaster University Research Ethics Board and received ethics clearance. If you have concerns or questions about your rights as a participant or about the way the study is conducted, please contact the McMaster Research Ethics Secretariat at ethicsoffice@mcmaster.ca.</p><br><p><h1>CONSENT</h1></p><p>I have read the information presented in the letter of information and I agree to participate in this study.</p><p>By pressing Enter, I consent to the above.<p>","13","","","","","","","","","",""
"survey-html-form","3","38723","0.0-3.0","","4352.6549999951385","","","{""1"":""5f2da6d8e8a9530b3082ebc1""}","","","","","","","","",""
"fullscreen","4","41987","0.0-4.0","","","","","","true","","","","","","","",""
"call-function","5","41988","0.0-5.0","","","","","","","","","","","","","",""
"html-keyboard-response","6","100634","0.0-6.0","","58644.155000016326","<div class = 'my_window'><h1>Instructions</h1><p>Your task in this experiment is to respond to the letters I or M as they appear on the screen. Unlike most experiments, your task will be to <strong><u>release</u></strong> keys (not push).</p><p>Before each trial starts, please ensure that you keep the <strong><u>V key</u></strong> and <strong><u>B key</u></strong> depressed with your <strong><u>right index finger</u></strong> on the <strong><u>V key</u></strong> and your <strong><u>right middle finger</u></strong> on the <strong><u>B key</u></strong> (see image below). Responses on this experiment will consist of lifting your <strong><u>right index finger</u></strong> to release the <strong><u>V key</u></strong> if you see the letter <strong><u>I</u></strong> or lifting your <strong><u>right middle finger</u></strong> to release the <strong><u>B key</u></strong> if you see the letter <strong><u>M</u></strong> as fast as you can. It is important that you <strong><u>only use your right hand</u></strong> to do the task.</p><p><img src='keyboard_img.png'></p><p>While you complete this task, there will be a couple of hands moving in the background. Ignore them and focus on the task.</p><p>Press ENTER to continue.</p></div>","13","","","","","","","","","",""
"html-keyboard-response","7","126280","0.0-7.0","","25644.200000009732","<div class = 'my_window'><h1>Practice</h1><p>You will first do a practice phase. In the practice phase, you will get feedback on your performance. The practice phase contains 10 trials, but will add an extra trial every time you respond incorrectly.</p><p><p>Before each trial starts, please ensure that you keep the <strong><u>V key</u></strong> and <strong><u>B key</u></strong> depressed with your <strong><u>right index finger</u></strong> on the <strong><u>V key</u></strong> and your <strong><u>right middle finger</u></strong> on the <strong><u>B key</u></strong> (see image below). Responses on this experiment will consist of lifting your <strong><u>right index finger</u></strong> to release the <strong><u>V key</u></strong> if you see the letter <strong><u>I</u></strong> or lifting your <strong><u>right middle finger</u></strong> to release the <strong><u>B key</u></strong> if you see the letter <strong><u>M</u></strong> as fast as you can. It is important that you <strong><u>only use your right hand</u></strong> to do the task.</p><p><img src='keyboard_img.png'></p><p>While you complete this task, there will be a couple of hands moving in the background. Ignore them and focus on the task.</p><p>This is a reaction time experiment, so please try to respond as fast as possible while at the same time minimizing mistakes.</p><p>Press ENTER to begin.</p></div>","13","","","","","","","","","",""
"fixation-image-keyboard-release-original","219","129192","0.0-8.0-1.0","","799.7949999989942","Stim/Stim-BG/II_I.PNG","86","","","2","exp","400","1","0","C","v","true"
"html-keyboard-response","220","130295","0.0-8.0-2.0","","null","<p> CORRECT </p>","null","","","","","","","","","",""
"fixation-image-keyboard-release-original","221","131708","0.0-9.0-1.0","","410.1950000040233","Stim/Stim-BG/IN_M.PNG","66","","","1","exp","400","1","1","IC","b","true"
"html-keyboard-response","222","132814","0.0-9.0-2.0","","null","<p> CORRECT </p>","null","","","","","","","","","",""
"fixation-image-keyboard-release-original","223","134268","0.0-10.0-1.0","","448.59500002348796","Stim/Stim-BG/MN_I.PNG","86","","","1","exp","100","2","0","IC","v","true"
"html-keyboard-response","224","135373","0.0-10.0-2.0","","null","<p> CORRECT </p>","null","","","","","","","","","",""
"fixation-image-keyboard-release-original","225","136920","0.0-11.0-1.0","","544.0349999989849","Stim/Stim-BG/NI_I.PNG","86","","","1","exp","700","1","0","C","v","true"
"html-keyboard-response","226","138028","0.0-11.0-2.0","","null","<p> CORRECT </p>","null","","","","","","","","","",""
"fixation-image-keyboard-release-original","227","139400","0.0-12.0-1.0","","367.4300000129733","Stim/Stim-GB/II_M.PNG","66","","","2","exp","100","1","1","IC","b","true"
"html-keyboard-response","228","140505","0.0-12.0-2.0","","null","<p> CORRECT </p>","null","","","","","","","","","",""
"fixation-image-keyboard-release-original","229","141920","0.0-13.0-1.0","","408.90999999828637","Stim/Stim-GB/II_M.PNG","66","","","2","exp","400","1","1","IC","b","true"
"html-keyboard-response","230","143026","0.0-13.0-2.0","","null","<p> CORRECT </p>","null","","","","","","","","","",""
"fixation-image-keyboard-release-original","231","144392","0.0-14.0-1.0","","361.78999999538064","Stim/Stim-GB/MM_M.PNG","66","","","2","exp","400","2","1","C","b","true"
"html-keyboard-response","232","145499","0.0-14.0-2.0","","null","<p> CORRECT </p>","null","","","","","","","","","",""
"fixation-image-keyboard-release-original","233","146860","0.0-15.0-1.0","","356.40499999863096","Stim/Stim-GB/NI_I.PNG","86","","","1","exp","400","1","0","C","v","true"
"html-keyboard-response","234","147966","0.0-15.0-2.0","","null","<p> CORRECT </p>","null","","","","","","","","","",""
"fixation-image-keyboard-release-original","235","149584","0.0-16.0-1.0","","613.0599999742117","Stim/Stim-BG/IN_M.PNG","66","","","1","exp","400","1","1","IC","b","true"
"html-keyboard-response","236","150689","0.0-16.0-2.0","","null","<p> CORRECT </p>","null","","","","","","","","","",""
"fixation-image-keyboard-release-original","237","152204","0.0-17.0-1.0","","510.35999998566695","Stim/Stim-BG/MM_I.PNG","86","","","2","exp","700","2","0","IC","v","true"
"html-keyboard-response","238","153313","0.0-17.0-2.0","","null","<p> CORRECT </p>","null","","","","","","","","","",""
"call-function","239","153314","0.0-18.0","","","","","","","","","","","","","",""
"survey-html-form","240","158021","0.0-19.0","","4706.304999999702","","","{""hands"":""Right""}","","","","","","","","",""
"html-keyboard-response","241","161760","0.0-20.0","","3737.9350000119302","If you are using <strong><u>just</u></strong> your <strong></u>right hand</u></strong>, then good job! If not, please do so in the main part of the experiment.<br><br>Press Enter to continue","13","","","","","","","","","",""
"html-keyboard-response","242","163277","0.0-21.0","","1516.4050000021234","<div class = 'my_window'><h1>Main Trials</h1><p>Good Job! We will now begin the main trials. In the main trials, you will <strong>not</strong> get feedback. There are 192 trials overall. You will get a self-paced break every 48 trials.</p><p>Instructions Reminder: <p>Before each trial starts, please ensure that you keep the <strong><u>V key</u></strong> and <strong><u>B key</u></strong> depressed with your <strong><u>right index finger</u></strong> on the <strong><u>V key</u></strong> and your <strong><u>right middle finger</u></strong> on the <strong><u>B key</u></strong> (see image below). Responses on this experiment will consist of lifting your <strong><u>right index finger</u></strong> to release the <strong><u>V key</u></strong> if you see the letter <strong><u>I</u></strong> or lifting your <strong><u>right middle finger</u></strong> to release the <strong><u>B key</u></strong> if you see the letter <strong><u>M</u></strong> as fast as you can. It is important that you <strong><u>only use your right hand</u></strong> to do the task.</p><p><img src='keyboard_img.png'></p><p>While you complete this task, there will be a couple of hands moving in the background. Ignore them and focus on the task.</p><p>Remember: this is a reaction time experiment, so please try to respond as fast as possible while at the same time minimizing mistakes.</p><p>Press ENTER to begin.</p></div>","13","","","","","","","","","",""
"call-function","243","163277","0.0-22.0","","","","","","","","","","","","","",""
"fixation-image-keyboard-release-original","632","166693","0.0-23.0-1.0","","439.25499997567385","Stim/Stim-GB/NI_I.PNG","86","","","1","exp","100","1","0","C","v","true"
"fixation-image-keyboard-release-original","633","169233","0.0-23.0-1.1","","530.8749999967404","Stim/Stim-GB/NI_I.PNG","86","","","1","exp","400","1","0","C","v","true"
"fixation-image-keyboard-release-original","634","171700","0.0-23.0-1.2","","461.0849999880884","Stim/Stim-GB/MN_M.PNG","66","","","1","exp","100","2","1","C","b","true"
"fixation-image-keyboard-release-original","635","174205","0.0-23.0-1.3","","498.410000000149","Stim/Stim-BG/NM_I.PNG","86","","","1","exp","100","2","0","IC","v","true"
"fixation-image-keyboard-release-original","636","176945","0.0-23.0-1.4","","736.5600000193808","Stim/Stim-GB/MN_M.PNG","66","","","1","exp","700","2","1","C","b","true"
"fixation-image-keyboard-release-original","637","179404","0.0-23.0-1.5","","450.9050000051502","Stim/Stim-BG/MM_M.PNG","66","","","2","exp","700","2","1","C","b","true"
"fixation-image-keyboard-release-original","638","181825","0.0-23.0-1.6","","415.1899999997113","Stim/Stim-GB/MM_M.PNG","66","","","2","exp","700","2","1","C","b","true"
"fixation-image-keyboard-release-original","639","184228","0.0-23.0-1.7","","399.37499997904524","Stim/Stim-BG/NM_M.PNG","66","","","1","exp","700","2","1","C","b","true"
"fixation-image-keyboard-release-original","640","186688","0.0-23.0-1.8","","455.2899999835063","Stim/Stim-BG/MM_M.PNG","66","","","2","exp","700","2","1","C","b","true"
"fixation-image-keyboard-release-original","641","189313","0.0-23.0-1.9","","617.9500000143889","Stim/Stim-GB/II_I.PNG","86","","","2","exp","700","1","0","C","v","true"
"fixation-image-keyboard-release-original","642","191805","0.0-23.0-1.10","","489.7599999967497","Stim/Stim-GB/NM_I.PNG","86","","","1","exp","100","2","0","IC","v","true"
"fixation-image-keyboard-release-original","643","194328","0.0-23.0-1.11","","518.0600000021514","Stim/Stim-BG/NI_I.PNG","86","","","1","exp","700","1","0","C","v","true"
"fixation-image-keyboard-release-original","644","196765","0.0-23.0-1.12","","431.9099999847822","Stim/Stim-BG/NI_I.PNG","86","","","1","exp","100","1","0","C","v","true"
"fixation-image-keyboard-release-original","645","199352","0.0-23.0-1.13","","579.2250000231434","Stim/Stim-GB/NM_M.PNG","66","","","1","exp","100","2","1","C","b","true"
"fixation-image-keyboard-release-original","646","201908","0.0-23.0-1.14","","551.7449999751989","Stim/Stim-BG/II_I.PNG","86","","","2","exp","700","1","0","C","v","true"
"fixation-image-keyboard-release-original","647","204308","0.0-23.0-1.15","","392.0299999881536","Stim/Stim-GB/NM_M.PNG","66","","","1","exp","700","2","1","C","b","true"
"fixation-image-keyboard-release-original","648","206804","0.0-23.0-1.16","","490.4300000052899","Stim/Stim-GB/NI_M.PNG","66","","","1","exp","400","1","1","IC","b","true"
"fixation-image-keyboard-release-original","649","209312","0.0-23.0-1.17","","501.82000000495464","Stim/Stim-GB/MM_M.PNG","66","","","2","exp","700","2","1","C","b","true"
"fixation-image-keyboard-release-original","650","211844","0.0-23.0-1.18","","526.4500000048429","Stim/Stim-BG/IN_M.PNG","66","","","1","exp","700","1","1","IC","b","true"
"fixation-image-keyboard-release-original","651","214284","0.0-23.0-1.19","","429.16499997954816","Stim/Stim-GB/MM_M.PNG","66","","","2","exp","700","2","1","C","b","true"
"fixation-image-keyboard-release-original","652","216764","0.0-23.0-1.20","","473.70000000228174","Stim/Stim-BG/II_M.PNG","66","","","2","exp","400","1","1","IC","b","true"
"fixation-image-keyboard-release-original","653","219152","0.0-23.0-1.21","","380.1600000006147","Stim/Stim-GB/II_M.PNG","66","","","2","exp","100","1","1","IC","b","true"
"fixation-image-keyboard-release-original","654","221636","0.0-23.0-1.22","","474.5999999868218","Stim/Stim-GB/II_I.PNG","86","","","2","exp","400","1","0","C","v","true"
"fixation-image-keyboard-release-original","655","224024","0.0-23.0-1.23","","378.91500000841916","Stim/Stim-BG/II_I.PNG","86","","","2","exp","700","1","0","C","v","true"
"fixation-image-keyboard-release-original","656","226500","0.0-23.0-1.24","","468.8650000025518","Stim/Stim-BG/II_M.PNG","66","","","2","exp","100","1","1","IC","b","true"
"fixation-image-keyboard-release-original","657","228976","0.0-23.0-1.25","","469.34999999939464","Stim/Stim-BG/MM_M.PNG","66","","","2","exp","400","2","1","C","b","true"
"fixation-image-keyboard-release-original","658","231460","0.0-23.0-1.26","","473.6149999953341","Stim/Stim-BG/MM_I.PNG","86","","","2","exp","400","2","0","IC","v","true"
"fixation-image-keyboard-release-original","659","233828","0.0-23.0-1.27","","357.8200000047218","Stim/Stim-GB/NM_M.PNG","66","","","1","exp","700","2","1","C","b","true"
"fixation-image-keyboard-release-original","660","236464","0.0-23.0-1.28","","625.1399999891873","Stim/Stim-BG/NM_I.PNG","86","","","1","exp","700","2","0","IC","v","true"
"fixation-image-keyboard-release-original","661","238952","0.0-23.0-1.29","","477.64500000630505","Stim/Stim-GB/NI_I.PNG","86","","","1","exp","100","1","0","C","v","true"
"fixation-image-keyboard-release-original","662","241376","0.0-23.0-1.30","","416.75500001292676","Stim/Stim-GB/IN_M.PNG","66","","","1","exp","400","1","1","IC","b","true"
"fixation-image-keyboard-release-original","663","243896","0.0-23.0-1.31","","512.430000002496","Stim/Stim-BG/MN_M.PNG","66","","","1","exp","700","2","1","C","b","true"
"fixation-image-keyboard-release-original","664","246388","0.0-23.0-1.32","","482.0950000139419","Stim/Stim-BG/MM_I.PNG","86","","","2","exp","100","2","0","IC","v","true"
"fixation-image-keyboard-release-original","665","248896","0.0-23.0-1.33","","500.54499998805113","Stim/Stim-BG/IN_I.PNG","86","","","1","exp","400","1","0","C","v","true"
"fixation-image-keyboard-release-original","666","251364","0.0-23.0-1.34","","460.81999997841194","Stim/Stim-BG/II_M.PNG","66","","","2","exp","100","1","1","IC","b","true"
"fixation-image-keyboard-release-original","667","253796","0.0-23.0-1.35","","421.8949999776669","Stim/Stim-GB/MM_M.PNG","66","","","2","exp","400","2","1","C","b","true"
"fixation-image-keyboard-release-original","668","256204","0.0-23.0-1.36","","401.1000000173226","Stim/Stim-GB/NI_M.PNG","66","","","1","exp","100","1","1","IC","b","true"
"fixation-image-keyboard-release-original","674","258726","0.0-23.0-1.37","","500.6500000017695","Stim/Stim-GB/MM_I.PNG","86","","","2","exp","700","2","0","IC","v","true"
"fixation-image-keyboard-release-original","675","261184","0.0-23.0-1.38","","447.2749999840744","Stim/Stim-GB/II_I.PNG","86","","","2","exp","700","1","0","C","v","true"
"fixation-image-keyboard-release-original","676","263591","0.0-23.0-1.39","","398.4249999921303","Stim/Stim-BG/MN_I.PNG","86","","","1","exp","100","2","0","IC","v","true"
"fixation-image-keyboard-release-original","677","265959","0.0-23.0-1.40","","358.5099999909289","Stim/Stim-GB/NI_M.PNG","66","","","1","exp","400","1","1","IC","b","true"
"fixation-image-keyboard-release-original","678","268339","0.0-23.0-1.41","","375.0750000181142","Stim/Stim-BG/MM_M.PNG","66","","","2","exp","100","2","1","C","b","true"
"fixation-image-keyboard-release-original","679","270851","0.0-23.0-1.42","","501.1299999896437","Stim/Stim-BG/NI_I.PNG","86","","","1","exp","700","1","0","C","v","true"
"fixation-image-keyboard-release-original","680","273288","0.0-23.0-1.43","","429.5050000073388","Stim/Stim-GB/MN_I.PNG","86","","","1","exp","100","2","0","IC","v","true"
"fixation-image-keyboard-release-original","681","275691","0.0-23.0-1.44","","394.63500000420026","Stim/Stim-GB/MM_I.PNG","86","","","2","exp","100","2","0","IC","v","true"
"fixation-image-keyboard-release-original","682","278095","0.0-23.0-1.45","","397.7300000260584","Stim/Stim-BG/NI_M.PNG","66","","","1","exp","100","1","1","IC","b","true"
"fixation-image-keyboard-release-original","683","280511","0.0-23.0-1.46","","407.9350000247359","Stim/Stim-GB/II_M.PNG","66","","","2","exp","700","1","1","IC","b","true"
"fixation-image-keyboard-release-original","684","282938","0.0-23.0-1.47","","422.3949999723118","Stim/Stim-BG/MM_I.PNG","86","","","2","exp","400","2","0","IC","v","true"
"html-keyboard-response","685","289389","0.0-23.0-2.47-0.47","","5448.770000017248","Take a break. Feel free to start again by pressing Enter.","13","","","","","","","","","",""
"fixation-image-keyboard-release-original","1065","292718","0.0-23.0-1.48","","421.8249999976251","Stim/Stim-BG/NM_M.PNG","66","","","1","exp","700","2","1","C","b","true"
"fixation-image-keyboard-release-original","1066","295227","0.0-23.0-1.49","","500.3100000030827","Stim/Stim-BG/II_M.PNG","66","","","2","exp","100","1","1","IC","b","true"
"fixation-image-keyboard-release-original","1067","297673","0.0-23.0-1.50","","439.47499999194406","Stim/Stim-BG/MM_I.PNG","86","","","2","exp","700","2","0","IC","v","true"
"fixation-image-keyboard-release-original","1068","300126","0.0-23.0-1.51","","442.3649999953341","Stim/Stim-GB/NM_I.PNG","86","","","1","exp","400","2","0","IC","v","true"
"fixation-image-keyboard-release-original","1069","302610","0.0-23.0-1.52","","480.4149999981746","Stim/Stim-BG/II_M.PNG","66","","","2","exp","400","1","1","IC","b","true"
"fixation-image-keyboard-release-original","1070","305126","0.0-23.0-1.53","","508.1300000019837","Stim/Stim-GB/NM_M.PNG","66","","","1","exp","400","2","1","C","b","true"
"fixation-image-keyboard-release-original","1071","307562","0.0-23.0-1.54","","432.5949999911245","Stim/Stim-GB/IN_I.PNG","86","","","1","exp","100","1","0","C","v","true"
"fixation-image-keyboard-release-original","1072","309961","0.0-23.0-1.55","","391.7899999942165","Stim/Stim-BG/IN_M.PNG","86","","","1","exp","700","1","1","IC","b","false"
"fixation-image-keyboard-release-original","1073","312402","0.0-23.0-1.56","","434.04500000178814","Stim/Stim-GB/MN_I.PNG","86","","","1","exp","400","2","0","IC","v","true"
"fixation-image-keyboard-release-original","1074","314990","0.0-23.0-1.57","","580.2649999968708","Stim/Stim-GB/NM_I.PNG","86","","","1","exp","700","2","0","IC","v","true"
"fixation-image-keyboard-release-original","1075","317418","0.0-23.0-1.58","","421.7599999974482","Stim/Stim-GB/IN_I.PNG","86","","","1","exp","400","1","0","C","v","true"
"fixation-image-keyboard-release-original","1076","319823","0.0-23.0-1.59","","395.5100000021048","Stim/Stim-GB/NM_I.PNG","86","","","1","exp","100","2","0","IC","v","true"
"fixation-image-keyboard-release-original","1077","322242","0.0-23.0-1.60","","410.68000000086613","Stim/Stim-GB/IN_I.PNG","86","","","1","exp","400","1","0","C","v","true"
"fixation-image-keyboard-release-original","1078","324706","0.0-23.0-1.61","","455.22999999229796","Stim/Stim-BG/MM_I.PNG","86","","","2","exp","700","2","0","IC","v","true"
"fixation-image-keyboard-release-original","1079","327126","0.0-23.0-1.62","","411.8200000084471","Stim/Stim-GB/MM_M.PNG","66","","","2","exp","400","2","1","C","b","true"
"fixation-image-keyboard-release-original","1080","329482","0.0-23.0-1.63","","345.09999997681007","Stim/Stim-BG/MM_M.PNG","66","","","2","exp","400","2","1","C","b","true"
"fixation-image-keyboard-release-original","1081","331867","0.0-23.0-1.64","","376.8399999826215","Stim/Stim-GB/MN_M.PNG","66","","","1","exp","400","2","1","C","b","true"
"fixation-image-keyboard-release-original","1082","334337","0.0-23.0-1.65","","463.37499999208376","Stim/Stim-BG/II_I.PNG","86","","","2","exp","400","1","0","C","v","true"
"fixation-image-keyboard-release-original","1083","336742","0.0-23.0-1.66","","398.56000000145286","Stim/Stim-GB/II_M.PNG","66","","","2","exp","100","1","1","IC","b","true"
"fixation-image-keyboard-release-original","1084","339274","0.0-23.0-1.67","","527.5050000054762","Stim/Stim-GB/II_M.PNG","66","","","2","exp","400","1","1","IC","b","true"
"fixation-image-keyboard-release-original","1085","341834","0.0-23.0-1.68","","550.7749999815132","Stim/Stim-GB/IN_M.PNG","66","","","1","exp","400","1","1","IC","b","true"
"fixation-image-keyboard-release-original","1086","344255","0.0-23.0-1.69","","412.16500001610257","Stim/Stim-GB/II_I.PNG","86","","","2","exp","400","1","0","C","v","true"
"fixation-image-keyboard-release-original","1087","346706","0.0-23.0-1.70","","441.7200000025332","Stim/Stim-BG/MM_I.PNG","86","","","2","exp","400","2","0","IC","v","true"
"fixation-image-keyboard-release-original","1088","349122","0.0-23.0-1.71","","410.62999999849126","Stim/Stim-BG/NM_M.PNG","66","","","1","exp","400","2","1","C","b","true"
"fixation-image-keyboard-release-original","1089","351578","0.0-23.0-1.72","","444.50500002130866","Stim/Stim-GB/II_I.PNG","86","","","2","exp","400","1","0","C","v","true"
"fixation-image-keyboard-release-original","1090","353953","0.0-23.0-1.73","","368.6800000141375","Stim/Stim-GB/MM_M.PNG","66","","","2","exp","700","2","1","C","b","true"
"fixation-image-keyboard-release-original","1091","356421","0.0-23.0-1.74","","456.6650000051595","Stim/Stim-GB/II_M.PNG","66","","","2","exp","700","1","1","IC","b","true"
"fixation-image-keyboard-release-original","1092","358861","0.0-23.0-1.75","","438.1700000085402","Stim/Stim-GB/MN_M.PNG","66","","","1","exp","100","2","1","C","b","true"
"fixation-image-keyboard-release-original","1093","361370","0.0-23.0-1.76","","500.3300000098534","Stim/Stim-GB/MN_M.PNG","66","","","1","exp","700","2","1","C","b","true"
"fixation-image-keyboard-release-original","1094","364033","0.0-23.0-1.77","","655.9799999813549","Stim/Stim-GB/NI_I.PNG","86","","","1","exp","700","1","0","C","v","true"
"fixation-image-keyboard-release-original","1095","366429","0.0-23.0-1.78","","393.1000000156928","Stim/Stim-BG/NM_M.PNG","66","","","1","exp","100","2","1","C","b","true"
"fixation-image-keyboard-release-original","1096","368858","0.0-23.0-1.79","","423.81499998737127","Stim/Stim-BG/NI_M.PNG","66","","","1","exp","400","1","1","IC","b","true"
"fixation-image-keyboard-release-original","1097","371250","0.0-23.0-1.80","","386.30499999271706","Stim/Stim-BG/II_I.PNG","86","","","2","exp","400","1","0","C","v","true"
"fixation-image-keyboard-release-original","1098","373681","0.0-23.0-1.81","","423.434999975143","Stim/Stim-GB/MM_I.PNG","86","","","2","exp","400","2","0","IC","v","true"
"fixation-image-keyboard-release-original","1099","376113","0.0-23.0-1.82","","423.8049999985378","Stim/Stim-GB/MN_I.PNG","86","","","1","exp","100","2","0","IC","v","true"
"fixation-image-keyboard-release-original","1100","378521","0.0-23.0-1.83","","398.27999999397434","Stim/Stim-BG/MM_M.PNG","66","","","2","exp","400","2","1","C","b","true"
"fixation-image-keyboard-release-original","1101","380913","0.0-23.0-1.84","","386.78000000072643","Stim/Stim-BG/NM_I.PNG","86","","","1","exp","100","2","0","IC","v","true"
"fixation-image-keyboard-release-original","1102","383277","0.0-23.0-1.85","","353.6500000045635","Stim/Stim-BG/II_M.PNG","66","","","2","exp","400","1","1","IC","b","true"
"fixation-image-keyboard-release-original","1103","385785","0.0-23.0-1.86","","499.19499998213723","Stim/Stim-BG/NI_M.PNG","66","","","1","exp","400","1","1","IC","b","true"
"fixation-image-keyboard-release-original","1104","388265","0.0-23.0-1.87","","471.36999998474494","Stim/Stim-GB/MM_I.PNG","86","","","2","exp","700","2","0","IC","v","true"
"fixation-image-keyboard-release-original","1105","390829","0.0-23.0-1.88","","556.4599999925122","Stim/Stim-BG/NM_I.PNG","86","","","1","exp","700","2","0","IC","v","true"
"fixation-image-keyboard-release-original","1106","393279","0.0-23.0-1.89","","439.80000002193265","Stim/Stim-GB/MM_I.PNG","86","","","2","exp","100","2","0","IC","v","true"
"fixation-image-keyboard-release-original","1107","395690","0.0-23.0-1.90","","401.1200000240933","Stim/Stim-BG/II_I.PNG","86","","","2","exp","100","1","0","C","v","true"
"fixation-image-keyboard-release-original","1108","398217","0.0-23.0-1.91","","519.140000018524","Stim/Stim-GB/NM_M.PNG","66","","","1","exp","100","2","1","C","b","true"
"fixation-image-keyboard-release-original","1109","400621","0.0-23.0-1.92","","398.22999999159947","Stim/Stim-BG/IN_I.PNG","86","","","1","exp","700","1","0","C","v","true"
"fixation-image-keyboard-release-original","1110","403085","0.0-23.0-1.93","","459.1749999963213","Stim/Stim-GB/II_I.PNG","86","","","2","exp","400","1","0","C","v","true"
"fixation-image-keyboard-release-original","1111","405501","0.0-23.0-1.94","","410.8450000057928","Stim/Stim-BG/MN_I.PNG","86","","","1","exp","700","2","0","IC","v","true"
"fixation-image-keyboard-release-original","1112","407897","0.0-23.0-1.95","","389.035000000149","Stim/Stim-GB/IN_I.PNG","86","","","1","exp","700","1","0","C","v","true"
"html-keyboard-response","1113","414960","0.0-23.0-2.95-0.95","","6063.159999990603","Take a break. Feel free to start again by pressing Enter.","13","","","","","","","","","",""
"fixation-image-keyboard-release-original","1582","418654","0.0-23.0-1.96","","334.28499998990446","Stim/Stim-BG/IN_I.PNG","86","","","1","exp","700","1","0","C","v","true"
"fixation-image-keyboard-release-original","1583","421152","0.0-23.0-1.97","","496.30999998771586","Stim/Stim-BG/MN_M.PNG","66","","","1","exp","700","2","1","C","b","true"
"fixation-image-keyboard-release-original","1584","423530","0.0-23.0-1.98","","373.6100000096485","Stim/Stim-BG/NM_I.PNG","86","","","1","exp","400","2","0","IC","v","true"
"fixation-image-keyboard-release-original","1585","425926","0.0-23.0-1.99","","391.54000001144595","Stim/Stim-GB/II_M.PNG","66","","","2","exp","700","1","1","IC","b","true"
"fixation-image-keyboard-release-original","1586","428313","0.0-23.0-1.100","","380.2549999963958","Stim/Stim-GB/NM_I.PNG","86","","","1","exp","400","2","0","IC","v","true"
"fixation-image-keyboard-release-original","1587","430724","0.0-23.0-1.101","","406.53500001644716","Stim/Stim-BG/MN_M.PNG","66","","","1","exp","100","2","1","C","b","true"
"fixation-image-keyboard-release-original","1588","433052","0.0-23.0-1.102","","317.9350000282284","Stim/Stim-BG/MM_I.PNG","86","","","2","exp","400","2","0","IC","v","true"
"fixation-image-keyboard-release-original","1589","435532","0.0-23.0-1.103","","472.040000022389","Stim/Stim-BG/MN_I.PNG","86","","","1","exp","700","2","0","IC","v","true"
"fixation-image-keyboard-release-original","1590","437899","0.0-23.0-1.104","","359.630000020843","Stim/Stim-GB/MM_I.PNG","86","","","2","exp","400","2","0","IC","v","true"
"fixation-image-keyboard-release-original","1591","440258","0.0-23.0-1.105","","351.9150000065565","Stim/Stim-BG/NI_M.PNG","86","","","1","exp","700","1","1","IC","b","false"
"fixation-image-keyboard-release-original","1624","442994","0.0-23.0-1.106","","589.0549999894574","Stim/Stim-GB/II_M.PNG","66","","","2","exp","400","1","1","IC","b","true"
"fixation-image-keyboard-release-original","1625","445437","0.0-23.0-1.107","","434.5000000030268","Stim/Stim-GB/MM_I.PNG","86","","","2","exp","700","2","0","IC","v","true"
"fixation-image-keyboard-release-original","1626","447814","0.0-23.0-1.108","","367.39999998826534","Stim/Stim-GB/II_I.PNG","86","","","2","exp","100","1","0","C","v","true"
"fixation-image-keyboard-release-original","1627","450261","0.0-23.0-1.109","","443.67499998770654","Stim/Stim-BG/MM_M.PNG","66","","","2","exp","400","2","1","C","b","true"
"fixation-image-keyboard-release-original","1628","452638","0.0-23.0-1.110","","372.2049999923911","Stim/Stim-BG/NI_M.PNG","66","","","1","exp","100","1","1","IC","b","true"
"fixation-image-keyboard-release-original","1629","455110","0.0-23.0-1.111","","465.44999998877756","Stim/Stim-BG/MM_M.PNG","66","","","2","exp","700","2","1","C","b","true"
"fixation-image-keyboard-release-original","1630","457584","0.0-23.0-1.112","","466.9100000173785","Stim/Stim-BG/MM_I.PNG","86","","","2","exp","100","2","0","IC","v","true"
"fixation-image-keyboard-release-original","1631","460001","0.0-23.0-1.113","","409.46500000427477","Stim/Stim-BG/MN_I.PNG","86","","","1","exp","100","2","0","IC","v","true"
"fixation-image-keyboard-release-original","1632","462363","0.0-23.0-1.114","","355.0600000016857","Stim/Stim-GB/NM_M.PNG","66","","","1","exp","400","2","1","C","b","true"
"fixation-image-keyboard-release-original","1633","464837","0.0-23.0-1.115","","464.5850000088103","Stim/Stim-BG/MM_I.PNG","86","","","2","exp","100","2","0","IC","v","true"
"fixation-image-keyboard-release-original","1634","467184","0.0-23.0-1.116","","338.3449999964796","Stim/Stim-BG/MM_M.PNG","66","","","2","exp","100","2","1","C","b","true"
"fixation-image-keyboard-release-original","1635","469576","0.0-23.0-1.117","","388.554999983171","Stim/Stim-GB/II_I.PNG","86","","","2","exp","100","1","0","C","v","true"
"fixation-image-keyboard-release-original","1636","471928","0.0-23.0-1.118","","345.1800000038929","Stim/Stim-GB/MM_M.PNG","66","","","2","exp","100","2","1","C","b","true"
"fixation-image-keyboard-release-original","1637","474360","0.0-23.0-1.119","","425.9400000155438","Stim/Stim-BG/II_M.PNG","66","","","2","exp","100","1","1","IC","b","true"
"fixation-image-keyboard-release-original","1638","476772","0.0-23.0-1.120","","405.78000000095926","Stim/Stim-GB/IN_M.PNG","66","","","1","exp","100","1","1","IC","b","true"
"fixation-image-keyboard-release-original","1639","479123","0.0-23.0-1.121","","340.7549999828916","Stim/Stim-BG/MM_M.PNG","66","","","2","exp","100","2","1","C","b","true"
"fixation-image-keyboard-release-original","1640","481549","0.0-23.0-1.122","","420.43500000727363","Stim/Stim-GB/IN_I.PNG","86","","","1","exp","100","1","0","C","v","true"
"fixation-image-keyboard-release-original","1641","483939","0.0-23.0-1.123","","380.8199999912176","Stim/Stim-GB/II_M.PNG","66","","","2","exp","400","1","1","IC","b","true"
"fixation-image-keyboard-release-original","1642","486396","0.0-23.0-1.124","","451.7950000008568","Stim/Stim-BG/MM_I.PNG","86","","","2","exp","700","2","0","IC","v","true"
"fixation-image-keyboard-release-original","1643","488884","0.0-23.0-1.125","","478.0699999828357","Stim/Stim-GB/MM_I.PNG","86","","","2","exp","100","2","0","IC","v","true"
"fixation-image-keyboard-release-original","1644","491264","0.0-23.0-1.126","","373.34999997983687","Stim/Stim-GB/II_I.PNG","86","","","2","exp","100","1","0","C","v","true"
"fixation-image-keyboard-release-original","1645","493728","0.0-23.0-1.127","","457.51999999629334","Stim/Stim-BG/MN_M.PNG","66","","","1","exp","100","2","1","C","b","true"
"fixation-image-keyboard-release-original","1646","496216","0.0-23.0-1.128","","485.86499999510124","Stim/Stim-GB/NI_I.PNG","86","","","1","exp","400","1","0","C","v","true"
"fixation-image-keyboard-release-original","1647","498703","0.0-23.0-1.129","","480.5800000031013","Stim/Stim-BG/NI_I.PNG","86","","","1","exp","400","1","0","C","v","true"
"fixation-image-keyboard-release-original","1648","501080","0.0-23.0-1.130","","367.45499999960884","Stim/Stim-GB/MM_M.PNG","66","","","2","exp","400","2","1","C","b","true"
"fixation-image-keyboard-release-original","1649","503536","0.0-23.0-1.131","","449.44999998551793","Stim/Stim-GB/NM_I.PNG","86","","","1","exp","700","2","0","IC","v","true"
"fixation-image-keyboard-release-original","1650","506008","0.0-23.0-1.132","","465.9150000079535","Stim/Stim-GB/MM_M.PNG","66","","","2","exp","100","2","1","C","b","true"
"fixation-image-keyboard-release-original","1651","508355","0.0-23.0-1.133","","338.37000001221895","Stim/Stim-GB/MN_I.PNG","86","","","1","exp","700","2","0","IC","v","true"
"fixation-image-keyboard-release-original","1652","510691","0.0-23.0-1.134","","330.5699999909848","Stim/Stim-GB/IN_M.PNG","66","","","1","exp","700","1","1","IC","b","true"
"fixation-image-keyboard-release-original","1653","513110","0.0-23.0-1.135","","410.62999999849126","Stim/Stim-BG/II_I.PNG","86","","","2","exp","100","1","0","C","v","true"
"fixation-image-keyboard-release-original","1654","515479","0.0-23.0-1.136","","358.3349999971688","Stim/Stim-GB/MN_M.PNG","66","","","1","exp","400","2","1","C","b","true"
"fixation-image-keyboard-release-original","1655","517838","0.0-23.0-1.137","","352.454999985639","Stim/Stim-GB/II_M.PNG","66","","","2","exp","700","1","1","IC","b","true"
"fixation-image-keyboard-release-original","1656","520318","0.0-23.0-1.138","","472.76000000420026","Stim/Stim-BG/NI_I.PNG","86","","","1","exp","400","1","0","C","v","true"
"fixation-image-keyboard-release-original","1657","522683","0.0-23.0-1.139","","357.85000000032596","Stim/Stim-BG/NM_M.PNG","66","","","1","exp","400","2","1","C","b","true"
"fixation-image-keyboard-release-original","1658","525175","0.0-23.0-1.140","","481.8749999976717","Stim/Stim-BG/IN_M.PNG","66","","","1","exp","400","1","1","IC","b","true"
"fixation-image-keyboard-release-original","1659","527586","0.0-23.0-1.141","","402.9799999843817","Stim/Stim-GB/MM_I.PNG","86","","","2","exp","400","2","0","IC","v","true"
"fixation-image-keyboard-release-original","1660","530003","0.0-23.0-1.142","","409.97999999672174","Stim/Stim-BG/MM_M.PNG","66","","","2","exp","700","2","1","C","b","true"
"fixation-image-keyboard-release-original","1661","532431","0.0-23.0-1.143","","417.51999998814426","Stim/Stim-GB/MM_I.PNG","86","","","2","exp","700","2","0","IC","v","true"
"html-keyboard-response","1662","542250","0.0-23.0-2.143-0.143","","8814.669999992475","Take a break. Feel free to start again by pressing Enter.","13","","","","","","","","","",""
"fixation-image-keyboard-release-original","2138","545983","0.0-23.0-1.144","","362.1500000008382","Stim/Stim-GB/II_I.PNG","86","","","2","exp","100","1","0","C","v","true"
"fixation-image-keyboard-release-original","2139","548320","0.0-23.0-1.145","","330.8449999894947","Stim/Stim-GB/MM_M.PNG","66","","","2","exp","400","2","1","C","b","true"
"fixation-image-keyboard-release-original","2140","550755","0.0-23.0-1.146","","425.3899999894202","Stim/Stim-BG/II_M.PNG","66","","","2","exp","700","1","1","IC","b","true"
"fixation-image-keyboard-release-original","2141","553102","0.0-23.0-1.147","","341.85499997693114","Stim/Stim-GB/IN_M.PNG","66","","","1","exp","700","1","1","IC","b","true"
"fixation-image-keyboard-release-original","2142","555543","0.0-23.0-1.148","","430.6649999925867","Stim/Stim-GB/MM_I.PNG","86","","","2","exp","400","2","0","IC","v","true"
"fixation-image-keyboard-release-original","2143","557931","0.0-23.0-1.149","","384.06499999109656","Stim/Stim-BG/II_M.PNG","86","","","2","exp","700","1","1","IC","b","false"
"fixation-image-keyboard-release-original","2144","560441","0.0-23.0-1.150","","499.149999988731","Stim/Stim-GB/II_I.PNG","86","","","2","exp","700","1","0","C","v","true"
"fixation-image-keyboard-release-original","2145","562882","0.0-23.0-1.151","","433.3199999819044","Stim/Stim-BG/II_I.PNG","86","","","2","exp","100","1","0","C","v","true"
"fixation-image-keyboard-release-original","2146","565255","0.0-23.0-1.152","","369.0549999882933","Stim/Stim-GB/IN_M.PNG","66","","","1","exp","100","1","1","IC","b","true"
"fixation-image-keyboard-release-original","2147","567807","0.0-23.0-1.153","","547.9799999739043","Stim/Stim-BG/II_I.PNG","86","","","2","exp","400","1","0","C","v","true"
"fixation-image-keyboard-release-original","2148","570143","0.0-23.0-1.154","","327.1750000130851","Stim/Stim-BG/IN_M.PNG","66","","","1","exp","100","1","1","IC","b","true"
"fixation-image-keyboard-release-original","2149","572499","0.0-23.0-1.155","","349.820000003092","Stim/Stim-BG/II_M.PNG","66","","","2","exp","700","1","1","IC","b","true"
"fixation-image-keyboard-release-original","2150","574939","0.0-23.0-1.156","","435.0300000223797","Stim/Stim-GB/NI_M.PNG","66","","","1","exp","700","1","1","IC","b","true"
"fixation-image-keyboard-release-original","2151","577379","0.0-23.0-1.157","","433.97000001277775","Stim/Stim-BG/IN_I.PNG","86","","","1","exp","400","1","0","C","v","true"
"fixation-image-keyboard-release-original","2152","579826","0.0-23.0-1.158","","437.2399999992922","Stim/Stim-BG/IN_M.PNG","66","","","1","exp","400","1","1","IC","b","true"
"fixation-image-keyboard-release-original","2153","582211","0.0-23.0-1.159","","378.9249999972526","Stim/Stim-BG/IN_M.PNG","66","","","1","exp","100","1","1","IC","b","true"
"fixation-image-keyboard-release-original","2154","584555","0.0-23.0-1.160","","337.65000000130385","Stim/Stim-BG/MM_M.PNG","66","","","2","exp","100","2","1","C","b","true"
"fixation-image-keyboard-release-original","2155","586931","0.0-23.0-1.161","","366.9800000207033","Stim/Stim-GB/NI_M.PNG","66","","","1","exp","700","1","1","IC","b","true"
"fixation-image-keyboard-release-original","2156","589322","0.0-23.0-1.162","","384.0150000178255","Stim/Stim-BG/II_I.PNG","66","","","2","exp","700","1","0","C","v","false"
"fixation-image-keyboard-release-original","2157","591802","0.0-23.0-1.163","","469.59000002243556","Stim/Stim-BG/II_M.PNG","66","","","2","exp","700","1","1","IC","b","true"
"fixation-image-keyboard-release-original","2158","594354","0.0-23.0-1.164","","546.3950000121258","Stim/Stim-GB/MM_I.PNG","86","","","2","exp","100","2","0","IC","v","true"
"fixation-image-keyboard-release-original","2159","596810","0.0-23.0-1.165","","448.130000004312","Stim/Stim-BG/II_I.PNG","86","","","2","exp","400","1","0","C","v","true"
"fixation-image-keyboard-release-original","2160","599214","0.0-23.0-1.166","","394.8300000047311","Stim/Stim-BG/NI_M.PNG","66","","","1","exp","700","1","1","IC","b","true"
"fixation-image-keyboard-release-original","2161","601635","0.0-23.0-1.167","","418.4250000107568","Stim/Stim-GB/IN_I.PNG","86","","","1","exp","700","1","0","C","v","true"
"fixation-image-keyboard-release-original","2162","604013","0.0-23.0-1.168","","371.24999999650754","Stim/Stim-GB/II_I.PNG","86","","","2","exp","700","1","0","C","v","true"
"fixation-image-keyboard-release-original","2163","606454","0.0-23.0-1.169","","431.9299999915529","Stim/Stim-BG/MN_M.PNG","66","","","1","exp","400","2","1","C","b","true"
"fixation-image-keyboard-release-original","2164","608858","0.0-23.0-1.170","","398.1199999980163","Stim/Stim-GB/MM_M.PNG","66","","","2","exp","100","2","1","C","b","true"
"fixation-image-keyboard-release-original","2165","611286","0.0-23.0-1.171","","422.7299999911338","Stim/Stim-BG/II_I.PNG","86","","","2","exp","700","1","0","C","v","true"
"fixation-image-keyboard-release-original","2166","613682","0.0-23.0-1.172","","385.4449999926146","Stim/Stim-BG/NM_I.PNG","86","","","1","exp","400","2","0","IC","v","true"
"fixation-image-keyboard-release-original","2167","616054","0.0-23.0-1.173","","363.1100000056904","Stim/Stim-BG/IN_I.PNG","86","","","1","exp","100","1","0","C","v","true"
"fixation-image-keyboard-release-original","2168","618410","0.0-23.0-1.174","","350.9100000082981","Stim/Stim-GB/MN_I.PNG","86","","","1","exp","700","2","0","IC","v","true"
"fixation-image-keyboard-release-original","2169","620761","0.0-23.0-1.175","","343.1700000073761","Stim/Stim-BG/MN_I.PNG","86","","","1","exp","400","2","0","IC","v","true"
"fixation-image-keyboard-release-original","2170","623074","0.0-23.0-1.176","","304.01500000152737","Stim/Stim-GB/II_M.PNG","66","","","2","exp","100","1","1","IC","b","true"
"fixation-image-keyboard-release-original","2171","625425","0.0-23.0-1.177","","347.0249999954831","Stim/Stim-BG/MN_I.PNG","86","","","1","exp","400","2","0","IC","v","true"
"fixation-image-keyboard-release-original","2172","627745","0.0-23.0-1.178","","313.97000001743436","Stim/Stim-GB/II_M.PNG","66","","","2","exp","400","1","1","IC","b","true"
"fixation-image-keyboard-release-original","2173","630197","0.0-23.0-1.179","","446.0499999986496","Stim/Stim-BG/MN_M.PNG","66","","","1","exp","400","2","1","C","b","true"
"fixation-image-keyboard-release-original","2174","632553","0.0-23.0-1.180","","350.77000001911074","Stim/Stim-GB/II_M.PNG","66","","","2","exp","100","1","1","IC","b","true"
"fixation-image-keyboard-release-original","2175","635005","0.0-23.0-1.181","","444.9099999910686","Stim/Stim-BG/MM_I.PNG","86","","","2","exp","700","2","0","IC","v","true"
"fixation-image-keyboard-release-original","2176","637465","0.0-23.0-1.182","","451.89500000560656","Stim/Stim-BG/IN_I.PNG","86","","","1","exp","100","1","0","C","v","true"
"fixation-image-keyboard-release-original","2177","639945","0.0-23.0-1.183","","474.1550000035204","Stim/Stim-BG/II_I.PNG","86","","","2","exp","100","1","0","C","v","true"
"fixation-image-keyboard-release-original","2178","642388","0.0-23.0-1.184","","434.16000000433996","Stim/Stim-BG/NM_M.PNG","66","","","1","exp","100","2","1","C","b","true"
"fixation-image-keyboard-release-original","2179","644901","0.0-23.0-1.185","","507.9799999948591","Stim/Stim-GB/NI_I.PNG","86","","","1","exp","700","1","0","C","v","true"
"fixation-image-keyboard-release-original","2180","647337","0.0-23.0-1.186","","433.1499999971129","Stim/Stim-GB/MN_I.PNG","86","","","1","exp","400","2","0","IC","v","true"
"fixation-image-keyboard-release-original","2181","649861","0.0-23.0-1.187","","516.2150000105612","Stim/Stim-BG/NI_I.PNG","86","","","1","exp","100","1","0","C","v","true"
"fixation-image-keyboard-release-original","2182","652229","0.0-23.0-1.188","","359.6899999829475","Stim/Stim-GB/NI_M.PNG","66","","","1","exp","100","1","1","IC","b","true"
"fixation-image-keyboard-release-original","2183","654657","0.0-23.0-1.189","","421.9250000023749","Stim/Stim-GB/MM_M.PNG","66","","","2","exp","100","2","1","C","b","true"
"fixation-image-keyboard-release-original","2200","657485","0.0-23.0-1.190","","755.105000018375","Stim/Stim-BG/MM_I.PNG","86","","","2","exp","100","2","0","IC","v","true"
"fixation-image-keyboard-release-original","2274","660409","0.0-23.0-1.191","","552.5800000177696","Stim/Stim-BG/II_M.PNG","66","","","2","exp","400","1","1","IC","b","true"
"call-function","2275","661414","0.0-24.0","","","","","","","","","","","","","",""
"survey-html-form","2276","665636","0.0-25.0","","4221.625000005588","","","{""hands2"":""Right""}","","","","","","","","",""
"html-keyboard-response","2277","681160","0.0-26.0","","15522.969999990892","<p><h1>This is the end of the experiment.</h1></p><p>Please <a href='Debrief.pdf' target='_blank'>Click Here</a> (this will open a new window) to read more about the study.</p><p>Press ENTER to end the experiment (you will be sent to Prolific - if something goes wrong, the completion code for this study is: 3F11CBBF).</p>","13","","","","","","","","","",""
