"trial_type","trial_index","time_elapsed","internal_node_id","value","rt","stimulus","key_press","responses","success","hand","test","gap","finger","cue","con","correct_response","correct"
"pavlovia","0","7","0.0-0.0","","","","","","","","","","","","","",""
"call-function","1","8","0.0-1.0","","","","","","","","","","","","","",""
"html-keyboard-response","2","82283","0.0-2.0","","82274.06999981031","<div class = 'my_window'><p><h1>Welcome!</h1><br><p><p>This experiment is adminterested by Carl Michael Galang (McMaster University), Dr. Emiel Cracco (Ghent University), Dr. Marcel Brass (Humboldt University of Berlin), & Dr. Sukhvinder Obhi (McMaster University).</p><p>The purpose of this study is to explore basic perceptual processing mechanisms.</p><p>Information gathered during this study will be written up for publication in an academic journal. While there are no direct benefits to you taking part in this study (other than learning more about the research topic and getting paid on Prolific), the results of this study will provide us with a better understanding of perceptual and sensory processes. To learn about this study, particularly in the terms of any associated risks or harms, how confidentiality and anonymity will be handled, withdrawal procedures, incentives that are promised, how to obtain information about the results, etc., please read the accompanying letter of information - <a href='LOI.pdf' target='_blank'>Click Here</a> (this will open a new window).</p><p>This study should take around 10min to complete.</p><p>If you have questions or need more information about the study itself, please contact me at: galangc@mcmaster.ca. This study has been reviewed by the McMaster University Research Ethics Board and received ethics clearance. If you have concerns or questions about your rights as a participant or about the way the study is conducted, please contact the McMaster Research Ethics Secretariat at ethicsoffice@mcmaster.ca.</p><br><p><h1>CONSENT</h1></p><p>I have read the information presented in the letter of information and I agree to participate in this study.</p><p>By pressing Enter, I consent to the above.<p>","13","","","","","","","","","",""
"survey-html-form","3","94202","0.0-3.0","","11917.644999921322","","","{""1"":""5fb254dc18ff6b7f9a40f337""}","","","","","","","","",""
"fullscreen","4","98464","0.0-4.0","","","","","","true","","","","","","","",""
"call-function","5","98466","0.0-5.0","","","","","","","","","","","","","",""
"html-keyboard-response","6","128745","0.0-6.0","","30277.635000180453","<div class = 'my_window'><h1>Instructions</h1><p>Your task in this experiment is to respond to the letters I or M as they appear on the screen. Unlike most experiments, your task will be to <strong><u>release</u></strong> keys (not push).</p><p>Before each trial starts, please ensure that you keep the <strong><u>V key</u></strong> and <strong><u>B key</u></strong> depressed with your <strong><u>right index finger</u></strong> on the <strong><u>V key</u></strong> and your <strong><u>right middle finger</u></strong> on the <strong><u>B key</u></strong> (see image below). Responses on this experiment will consist of lifting your <strong><u>right index finger</u></strong> to release the <strong><u>V key</u></strong> if you see the letter <strong><u>I</u></strong> or lifting your <strong><u>right middle finger</u></strong> to release the <strong><u>B key</u></strong> if you see the letter <strong><u>M</u></strong> as fast as you can. It is important that you <strong><u>only use your right hand</u></strong> to do the task.</p><p><img src='keyboard_img.png'></p><p>While you complete this task, there will be a couple of hands moving in the background. Ignore them and focus on the task.</p><p>Press ENTER to continue.</p></div>","13","","","","","","","","","",""
"html-keyboard-response","7","158983","0.0-7.0","","30236.47499969229","<div class = 'my_window'><h1>Practice</h1><p>You will first do a practice phase. In the practice phase, you will get feedback on your performance. The practice phase contains 10 trials, but will add an extra trial every time you respond incorrectly.</p><p><p>Before each trial starts, please ensure that you keep the <strong><u>V key</u></strong> and <strong><u>B key</u></strong> depressed with your <strong><u>right index finger</u></strong> on the <strong><u>V key</u></strong> and your <strong><u>right middle finger</u></strong> on the <strong><u>B key</u></strong> (see image below). Responses on this experiment will consist of lifting your <strong><u>right index finger</u></strong> to release the <strong><u>V key</u></strong> if you see the letter <strong><u>I</u></strong> or lifting your <strong><u>right middle finger</u></strong> to release the <strong><u>B key</u></strong> if you see the letter <strong><u>M</u></strong> as fast as you can. It is important that you <strong><u>only use your right hand</u></strong> to do the task.</p><p><img src='keyboard_img.png'></p><p>While you complete this task, there will be a couple of hands moving in the background. Ignore them and focus on the task.</p><p>This is a reaction time experiment, so please try to respond as fast as possible while at the same time minimizing mistakes.</p><p>Press ENTER to begin.</p></div>","13","","","","","","","","","",""
"fixation-image-keyboard-release-original","212","162040","0.0-8.0-1.0","","879.8199999146163","Stim/Stim-BG/II_I.PNG","86","","","2","exp","400","1","0","C","v","true"
"html-keyboard-response","213","163163","0.0-8.0-2.0","","null","<p> CORRECT </p>","null","","","","","","","","","",""
"fixation-image-keyboard-release-original","214","165012","0.0-9.0-1.0","","831.5500002354383","Stim/Stim-BG/MM_I.PNG","86","","","2","exp","400","2","0","IC","v","true"
"html-keyboard-response","215","166127","0.0-9.0-2.0","","null","<p> CORRECT </p>","null","","","","","","","","","",""
"fixation-image-keyboard-release-original","216","167833","0.0-10.0-1.0","","698.2599999755621","Stim/Stim-GB/MN_I.PNG","86","","","1","exp","700","2","0","IC","v","true"
"html-keyboard-response","217","168941","0.0-10.0-2.0","","null","<p> CORRECT </p>","null","","","","","","","","","",""
"fixation-image-keyboard-release-original","218","170679","0.0-11.0-1.0","","732.8849998302758","Stim/Stim-GB/NM_I.PNG","86","","","1","exp","100","2","0","IC","v","true"
"html-keyboard-response","219","171795","0.0-11.0-2.0","","null","<p> CORRECT </p>","null","","","","","","","","","",""
"fixation-image-keyboard-release-original","220","173414","0.0-12.0-1.0","","613.7149999849498","Stim/Stim-BG/IN_M.PNG","66","","","1","exp","700","1","1","IC","b","true"
"html-keyboard-response","221","174527","0.0-12.0-2.0","","null","<p> CORRECT </p>","null","","","","","","","","","",""
"fixation-image-keyboard-release-original","222","176138","0.0-13.0-1.0","","598.0249997228384","Stim/Stim-BG/MM_M.PNG","66","","","2","exp","100","2","1","C","b","true"
"html-keyboard-response","223","177259","0.0-13.0-2.0","","null","<p> CORRECT </p>","null","","","","","","","","","",""
"fixation-image-keyboard-release-original","224","178945","0.0-14.0-1.0","","681.4399999566376","Stim/Stim-GB/NI_I.PNG","86","","","1","exp","700","1","0","C","v","true"
"html-keyboard-response","225","180057","0.0-14.0-2.0","","null","<p> CORRECT </p>","null","","","","","","","","","",""
"fixation-image-keyboard-release-original","226","181603","0.0-15.0-1.0","","540.9099999815226","Stim/Stim-GB/IN_M.PNG","66","","","1","exp","400","1","1","IC","b","true"
"html-keyboard-response","227","182710","0.0-15.0-2.0","","null","<p> CORRECT </p>","null","","","","","","","","","",""
"fixation-image-keyboard-release-original","228","184116","0.0-16.0-1.0","","400.28499998152256","Stim/Stim-GB/NM_M.PNG","66","","","1","exp","400","2","1","C","b","true"
"html-keyboard-response","229","185236","0.0-16.0-2.0","","null","<p> CORRECT </p>","null","","","","","","","","","",""
"fixation-image-keyboard-release-original","230","186784","0.0-17.0-1.0","","540.3100000694394","Stim/Stim-GB/MN_M.PNG","66","","","1","exp","700","2","1","C","b","true"
"html-keyboard-response","231","187907","0.0-17.0-2.0","","null","<p> CORRECT </p>","null","","","","","","","","","",""
"call-function","232","187908","0.0-18.0","","","","","","","","","","","","","",""
"survey-html-form","233","197636","0.0-19.0","","9725.550000090152","","","{""hands"":""Right""}","","","","","","","","",""
"html-keyboard-response","234","205047","0.0-20.0","","7411.015000194311","If you are using <strong><u>just</u></strong> your <strong></u>right hand</u></strong>, then good job! If not, please do so in the main part of the experiment.<br><br>Press Enter to continue","13","","","","","","","","","",""
"html-keyboard-response","235","217989","0.0-21.0","","12940.630000084639","<div class = 'my_window'><h1>Main Trials</h1><p>Good Job! We will now begin the main trials. In the main trials, you will <strong>not</strong> get feedback. There are 192 trials overall. You will get a self-paced break every 48 trials.</p><p>Instructions Reminder: <p>Before each trial starts, please ensure that you keep the <strong><u>V key</u></strong> and <strong><u>B key</u></strong> depressed with your <strong><u>right index finger</u></strong> on the <strong><u>V key</u></strong> and your <strong><u>right middle finger</u></strong> on the <strong><u>B key</u></strong> (see image below). Responses on this experiment will consist of lifting your <strong><u>right index finger</u></strong> to release the <strong><u>V key</u></strong> if you see the letter <strong><u>I</u></strong> or lifting your <strong><u>right middle finger</u></strong> to release the <strong><u>B key</u></strong> if you see the letter <strong><u>M</u></strong> as fast as you can. It is important that you <strong><u>only use your right hand</u></strong> to do the task.</p><p><img src='keyboard_img.png'></p><p>While you complete this task, there will be a couple of hands moving in the background. Ignore them and focus on the task.</p><p>Remember: this is a reaction time experiment, so please try to respond as fast as possible while at the same time minimizing mistakes.</p><p>Press ENTER to begin.</p></div>","13","","","","","","","","","",""
"call-function","236","217990","0.0-22.0","","","","","","","","","","","","","",""
"fixation-image-keyboard-release-original","510","221128","0.0-23.0-1.0","","609.8600002005696","Stim/Stim-BG/MN_M.PNG","66","","","1","exp","400","2","1","C","b","true"
"fixation-image-keyboard-release-original","511","223626","0.0-23.0-1.1","","491.3899996317923","Stim/Stim-GB/MM_I.PNG","86","","","2","exp","700","2","0","IC","v","true"
"fixation-image-keyboard-release-original","512","226095","0.0-23.0-1.2","","454.7449997626245","Stim/Stim-GB/II_M.PNG","66","","","2","exp","400","1","1","IC","b","true"
"fixation-image-keyboard-release-original","513","228621","0.0-23.0-1.3","","509.09999990835786","Stim/Stim-GB/MM_M.PNG","66","","","2","exp","100","2","1","C","b","true"
"fixation-image-keyboard-release-original","514","231277","0.0-23.0-1.4","","649.730000179261","Stim/Stim-BG/MM_I.PNG","86","","","2","exp","400","2","0","IC","v","true"
"fixation-image-keyboard-release-original","515","233847","0.0-23.0-1.5","","549.7300000861287","Stim/Stim-BG/IN_I.PNG","86","","","1","exp","400","1","0","C","v","true"
"fixation-image-keyboard-release-original","516","236415","0.0-23.0-1.6","","555.5500001646578","Stim/Stim-GB/II_M.PNG","66","","","2","exp","100","1","1","IC","b","true"
"fixation-image-keyboard-release-original","517","239105","0.0-23.0-1.7","","672.4999998696148","Stim/Stim-GB/NI_I.PNG","86","","","1","exp","700","1","0","C","v","true"
"fixation-image-keyboard-release-original","518","241488","0.0-23.0-1.8","","368.4550002217293","Stim/Stim-GB/MM_M.PNG","66","","","2","exp","700","2","1","C","b","true"
"fixation-image-keyboard-release-original","519","244052","0.0-23.0-1.9","","549.100000411272","Stim/Stim-GB/MN_M.PNG","66","","","1","exp","100","2","1","C","b","true"
"fixation-image-keyboard-release-original","520","246695","0.0-23.0-1.10","","634.9050002172589","Stim/Stim-GB/MN_I.PNG","86","","","1","exp","100","2","0","IC","v","true"
"fixation-image-keyboard-release-original","521","249087","0.0-23.0-1.11","","381.0700001195073","Stim/Stim-BG/NI_M.PNG","66","","","1","exp","400","1","1","IC","b","true"
"fixation-image-keyboard-release-original","522","251659","0.0-23.0-1.12","","557.0849999785423","Stim/Stim-BG/MM_M.PNG","66","","","2","exp","100","2","1","C","b","true"
"fixation-image-keyboard-release-original","523","254236","0.0-23.0-1.13","","554.3199996463954","Stim/Stim-GB/MN_M.PNG","66","","","1","exp","400","2","1","C","b","true"
"fixation-image-keyboard-release-original","524","256869","0.0-23.0-1.14","","621.5300001204014","Stim/Stim-GB/MM_I.PNG","86","","","2","exp","100","2","0","IC","v","true"
"fixation-image-keyboard-release-original","525","259494","0.0-23.0-1.15","","610.4650003835559","Stim/Stim-BG/MM_I.PNG","86","","","2","exp","700","2","0","IC","v","true"
"fixation-image-keyboard-release-original","526","262075","0.0-23.0-1.16","","569.369999691844","Stim/Stim-GB/IN_M.PNG","66","","","1","exp","400","1","1","IC","b","true"
"fixation-image-keyboard-release-original","527","264659","0.0-23.0-1.17","","563.7300000526011","Stim/Stim-BG/NM_M.PNG","66","","","1","exp","400","2","1","C","b","true"
"fixation-image-keyboard-release-original","528","267253","0.0-23.0-1.18","","587.0099999010563","Stim/Stim-BG/NM_I.PNG","86","","","1","exp","700","2","0","IC","v","true"
"fixation-image-keyboard-release-original","529","269808","0.0-23.0-1.19","","542.72500006482","Stim/Stim-GB/MM_M.PNG","66","","","2","exp","700","2","1","C","b","true"
"fixation-image-keyboard-release-original","530","272380","0.0-23.0-1.20","","551.7800003290176","Stim/Stim-GB/MN_M.PNG","66","","","1","exp","700","2","1","C","b","true"
"fixation-image-keyboard-release-original","531","274959","0.0-23.0-1.21","","560.809999704361","Stim/Stim-BG/MN_I.PNG","86","","","1","exp","100","2","0","IC","v","true"
"fixation-image-keyboard-release-original","532","277550","0.0-23.0-1.22","","585.4000002145767","Stim/Stim-BG/MM_I.PNG","86","","","2","exp","100","2","0","IC","v","true"
"fixation-image-keyboard-release-original","533","280108","0.0-23.0-1.23","","526.4099999330938","Stim/Stim-BG/II_I.PNG","86","","","2","exp","400","1","0","C","v","true"
"fixation-image-keyboard-release-original","534","282677","0.0-23.0-1.24","","543.9300001598895","Stim/Stim-BG/MM_I.PNG","86","","","2","exp","700","2","0","IC","v","true"
"fixation-image-keyboard-release-original","535","285084","0.0-23.0-1.25","","399.66499991714954","Stim/Stim-GB/NM_M.PNG","66","","","1","exp","400","2","1","C","b","true"
"fixation-image-keyboard-release-original","536","287590","0.0-23.0-1.26","","497.15999979525805","Stim/Stim-GB/II_I.PNG","86","","","2","exp","100","1","0","C","v","true"
"fixation-image-keyboard-release-original","537","290100","0.0-23.0-1.27","","503.30999959260225","Stim/Stim-BG/MM_M.PNG","66","","","2","exp","100","2","1","C","b","true"
"fixation-image-keyboard-release-original","538","292730","0.0-23.0-1.28","","625","Stim/Stim-GB/MM_M.PNG","66","","","2","exp","700","2","1","C","b","true"
"fixation-image-keyboard-release-original","539","295308","0.0-23.0-1.29","","561.9500000029802","Stim/Stim-BG/MM_M.PNG","66","","","2","exp","100","2","1","C","b","true"
"fixation-image-keyboard-release-original","540","297881","0.0-23.0-1.30","","559.8400002345443","Stim/Stim-GB/MN_M.PNG","66","","","1","exp","700","2","1","C","b","true"
"fixation-image-keyboard-release-original","541","300324","0.0-23.0-1.31","","432.70999984815717","Stim/Stim-BG/MN_I.PNG","86","","","1","exp","400","2","0","IC","v","true"
"fixation-image-keyboard-release-original","542","302788","0.0-23.0-1.32","","456.7900002002716","Stim/Stim-GB/IN_I.PNG","86","","","1","exp","100","1","0","C","v","true"
"fixation-image-keyboard-release-original","543","305386","0.0-23.0-1.33","","577.7449999004602","Stim/Stim-BG/MN_M.PNG","66","","","1","exp","700","2","1","C","b","true"
"fixation-image-keyboard-release-original","544","308264","0.0-23.0-1.34","","866.8700000271201","Stim/Stim-GB/MM_I.PNG","86","","","2","exp","100","2","0","IC","v","true"
"fixation-image-keyboard-release-original","545","310690","0.0-23.0-1.35","","406.49500023573637","Stim/Stim-BG/MM_M.PNG","66","","","2","exp","400","2","1","C","b","true"
"fixation-image-keyboard-release-original","546","313279","0.0-23.0-1.36","","578.1699996441603","Stim/Stim-BG/IN_M.PNG","66","","","1","exp","700","1","1","IC","b","true"
"fixation-image-keyboard-release-original","547","315749","0.0-23.0-1.37","","459.3850001692772","Stim/Stim-GB/NM_I.PNG","66","","","1","exp","400","2","0","IC","v","false"
"fixation-image-keyboard-release-original","548","318529","0.0-23.0-1.38","","754.939999897033","Stim/Stim-BG/MN_M.PNG","66","","","1","exp","700","2","1","C","b","true"
"fixation-image-keyboard-release-original","549","321174","0.0-23.0-1.39","","632.6350001618266","Stim/Stim-BG/MM_I.PNG","86","","","2","exp","400","2","0","IC","v","true"
"fixation-image-keyboard-release-original","550","323713","0.0-23.0-1.40","","520.5749999731779","Stim/Stim-BG/II_M.PNG","66","","","2","exp","400","1","1","IC","b","true"
"fixation-image-keyboard-release-original","551","326390","0.0-23.0-1.41","","671.5000001713634","Stim/Stim-BG/NI_I.PNG","86","","","1","exp","100","1","0","C","v","true"
"fixation-image-keyboard-release-original","552","328941","0.0-23.0-1.42","","542.8300001658499","Stim/Stim-BG/MM_I.PNG","86","","","2","exp","100","2","0","IC","v","true"
"fixation-image-keyboard-release-original","553","331654","0.0-23.0-1.43","","695.4349996522069","Stim/Stim-BG/NI_I.PNG","86","","","1","exp","700","1","0","C","v","true"
"fixation-image-keyboard-release-original","554","334170","0.0-23.0-1.44","","497.94499995186925","Stim/Stim-GB/IN_I.PNG","86","","","1","exp","700","1","0","C","v","true"
"fixation-image-keyboard-release-original","555","336646","0.0-23.0-1.45","","463.3300001733005","Stim/Stim-GB/IN_M.PNG","66","","","1","exp","700","1","1","IC","b","true"
"fixation-image-keyboard-release-original","556","339089","0.0-23.0-1.46","","429.1750001721084","Stim/Stim-GB/NM_M.PNG","66","","","1","exp","100","2","1","C","b","true"
"fixation-image-keyboard-release-original","557","341640","0.0-23.0-1.47","","535.31499998644","Stim/Stim-GB/IN_I.PNG","86","","","1","exp","700","1","0","C","v","true"
"html-keyboard-response","558","375217","0.0-23.0-2.47-0.47","","32573.4250000678","Take a break. Feel free to start again by pressing Enter.","13","","","","","","","","","",""
"fixation-image-keyboard-release-original","1154","380049","0.0-23.0-1.48","","559.2200001701713","Stim/Stim-GB/II_M.PNG","66","","","2","exp","400","1","1","IC","b","true"
"fixation-image-keyboard-release-original","1155","382522","0.0-23.0-1.49","","461.8500000797212","Stim/Stim-BG/NI_M.PNG","66","","","1","exp","100","1","1","IC","b","true"
"fixation-image-keyboard-release-original","1156","384937","0.0-23.0-1.50","","390.5700002796948","Stim/Stim-BG/IN_I.PNG","86","","","1","exp","100","1","0","C","v","true"
"fixation-image-keyboard-release-original","1157","387343","0.0-23.0-1.51","","394.7850000113249","Stim/Stim-GB/NI_M.PNG","66","","","1","exp","400","1","1","IC","b","true"
"fixation-image-keyboard-release-original","1158","389788","0.0-23.0-1.52","","438.3650003001094","Stim/Stim-BG/NI_I.PNG","66","","","1","exp","400","1","0","C","v","false"
"fixation-image-keyboard-release-original","1159","392335","0.0-23.0-1.53","","540.5000001192093","Stim/Stim-GB/MM_M.PNG","66","","","2","exp","400","2","1","C","b","true"
"fixation-image-keyboard-release-original","1160","394809","0.0-23.0-1.54","","454.45499988272786","Stim/Stim-BG/II_I.PNG","86","","","2","exp","700","1","0","C","v","true"
"fixation-image-keyboard-release-original","1161","397414","0.0-23.0-1.55","","586.8300003930926","Stim/Stim-GB/NM_I.PNG","86","","","1","exp","400","2","0","IC","v","true"
"fixation-image-keyboard-release-original","1162","400045","0.0-23.0-1.56","","623.420000076294","Stim/Stim-GB/NM_M.PNG","66","","","1","exp","100","2","1","C","b","true"
"fixation-image-keyboard-release-original","1163","402620","0.0-23.0-1.57","","569.649999961257","Stim/Stim-BG/MM_M.PNG","66","","","2","exp","400","2","1","C","b","true"
"fixation-image-keyboard-release-original","1164","405188","0.0-23.0-1.58","","555.5649995803833","Stim/Stim-BG/MM_I.PNG","86","","","2","exp","100","2","0","IC","v","true"
"fixation-image-keyboard-release-original","1165","407696","0.0-23.0-1.59","","495.91000005602837","Stim/Stim-GB/II_M.PNG","66","","","2","exp","700","1","1","IC","b","true"
"fixation-image-keyboard-release-original","1166","410202","0.0-23.0-1.60","","497.81000008806586","Stim/Stim-BG/II_I.PNG","86","","","2","exp","400","1","0","C","v","true"
"fixation-image-keyboard-release-original","1167","412623","0.0-23.0-1.61","","410.60000006109476","Stim/Stim-BG/NI_M.PNG","66","","","1","exp","100","1","1","IC","b","true"
"fixation-image-keyboard-release-original","1168","415274","0.0-23.0-1.62","","643.9950000494719","Stim/Stim-GB/NM_I.PNG","86","","","1","exp","100","2","0","IC","v","true"
"fixation-image-keyboard-release-original","1169","417807","0.0-23.0-1.63","","515.0299998931587","Stim/Stim-GB/IN_I.PNG","86","","","1","exp","400","1","0","C","v","true"
"fixation-image-keyboard-release-original","1170","420615","0.0-23.0-1.64","","787.1650001034141","Stim/Stim-GB/NI_I.PNG","86","","","1","exp","100","1","0","C","v","true"
"fixation-image-keyboard-release-original","1171","423149","0.0-23.0-1.65","","528.8199996575713","Stim/Stim-GB/II_M.PNG","66","","","2","exp","100","1","1","IC","b","true"
"fixation-image-keyboard-release-original","1172","425835","0.0-23.0-1.66","","666.0350002348423","Stim/Stim-BG/IN_M.PNG","66","","","1","exp","400","1","1","IC","b","true"
"fixation-image-keyboard-release-original","1173","428431","0.0-23.0-1.67","","584.6750000491738","Stim/Stim-BG/IN_M.PNG","66","","","1","exp","700","1","1","IC","b","true"
"fixation-image-keyboard-release-original","1174","431018","0.0-23.0-1.68","","571.0400003008544","Stim/Stim-BG/MM_M.PNG","66","","","2","exp","400","2","1","C","b","true"
"fixation-image-keyboard-release-original","1175","433641","0.0-23.0-1.69","","611.0799997113645","Stim/Stim-BG/NI_M.PNG","66","","","1","exp","700","1","1","IC","b","true"
"fixation-image-keyboard-release-original","1176","436185","0.0-23.0-1.70","","538.6099996976554","Stim/Stim-GB/II_I.PNG","86","","","2","exp","100","1","0","C","v","true"
"fixation-image-keyboard-release-original","1177","438689","0.0-23.0-1.71","","495.7449999637902","Stim/Stim-BG/IN_I.PNG","86","","","1","exp","400","1","0","C","v","true"
"fixation-image-keyboard-release-original","1178","441381","0.0-23.0-1.72","","675.2150002866983","Stim/Stim-BG/NM_I.PNG","86","","","1","exp","700","2","0","IC","v","true"
"fixation-image-keyboard-release-original","1179","443980","0.0-23.0-1.73","","588.6800000444055","Stim/Stim-GB/NM_I.PNG","86","","","1","exp","100","2","0","IC","v","true"
"fixation-image-keyboard-release-original","1180","446494","0.0-23.0-1.74","","502.2350000217557","Stim/Stim-BG/MM_I.PNG","86","","","2","exp","700","2","0","IC","v","true"
"fixation-image-keyboard-release-original","1181","449141","0.0-23.0-1.75","","633.6600002832711","Stim/Stim-BG/II_I.PNG","86","","","2","exp","700","1","0","C","v","true"
"fixation-image-keyboard-release-original","1182","451694","0.0-23.0-1.76","","541.7050002142787","Stim/Stim-BG/II_I.PNG","86","","","2","exp","700","1","0","C","v","true"
"fixation-image-keyboard-release-original","1183","454502","0.0-23.0-1.77","","789.6099998615682","Stim/Stim-BG/MM_M.PNG","66","","","2","exp","700","2","1","C","b","true"
"fixation-image-keyboard-release-original","1184","457167","0.0-23.0-1.78","","651.6350000165403","Stim/Stim-GB/MM_I.PNG","86","","","2","exp","700","2","0","IC","v","true"
"fixation-image-keyboard-release-original","1185","459755","0.0-23.0-1.79","","578.0699998140335","Stim/Stim-GB/NM_I.PNG","86","","","1","exp","700","2","0","IC","v","true"
"fixation-image-keyboard-release-original","1186","462269","0.0-23.0-1.80","","505.5799996480346","Stim/Stim-BG/II_I.PNG","86","","","2","exp","400","1","0","C","v","true"
"fixation-image-keyboard-release-original","1187","465139","0.0-23.0-1.81","","851.5500002540648","Stim/Stim-GB/NI_I.PNG","86","","","1","exp","700","1","0","C","v","true"
"fixation-image-keyboard-release-original","1188","467683","0.0-23.0-1.82","","527.5850002653897","Stim/Stim-GB/NM_M.PNG","66","","","1","exp","700","2","1","C","b","true"
"fixation-image-keyboard-release-original","1189","470225","0.0-23.0-1.83","","533.0650000832975","Stim/Stim-GB/NI_I.PNG","86","","","1","exp","100","1","0","C","v","true"
"fixation-image-keyboard-release-original","1190","472950","0.0-23.0-1.84","","703.5000002942979","Stim/Stim-GB/NI_M.PNG","66","","","1","exp","400","1","1","IC","b","true"
"fixation-image-keyboard-release-original","1191","475527","0.0-23.0-1.85","","561.0699998214841","Stim/Stim-BG/II_M.PNG","66","","","2","exp","100","1","1","IC","b","true"
"fixation-image-keyboard-release-original","1192","478155","0.0-23.0-1.86","","618.3500001206994","Stim/Stim-BG/IN_I.PNG","86","","","1","exp","100","1","0","C","v","true"
"fixation-image-keyboard-release-original","1193","480807","0.0-23.0-1.87","","635.319999884814","Stim/Stim-BG/MM_M.PNG","66","","","2","exp","700","2","1","C","b","true"
"fixation-image-keyboard-release-original","1194","483442","0.0-23.0-1.88","","614.5999999716878","Stim/Stim-BG/MN_M.PNG","66","","","1","exp","100","2","1","C","b","true"
"fixation-image-keyboard-release-original","1195","486376","0.0-23.0-1.89","","927.7750002220273","Stim/Stim-GB/II_M.PNG","66","","","2","exp","400","1","1","IC","b","true"
"fixation-image-keyboard-release-original","1196","488975","0.0-23.0-1.90","","589.6549997851253","Stim/Stim-GB/MN_M.PNG","66","","","1","exp","100","2","1","C","b","true"
"fixation-image-keyboard-release-original","1197","491500","0.0-23.0-1.91","","517.3900001682341","Stim/Stim-BG/IN_M.PNG","66","","","1","exp","400","1","1","IC","b","true"
"fixation-image-keyboard-release-original","1198","494044","0.0-23.0-1.92","","537.6399997621775","Stim/Stim-BG/MN_I.PNG","86","","","1","exp","100","2","0","IC","v","true"
"fixation-image-keyboard-release-original","1199","496636","0.0-23.0-1.93","","573.7699996680021","Stim/Stim-BG/MM_M.PNG","66","","","2","exp","700","2","1","C","b","true"
"fixation-image-keyboard-release-original","1200","499167","0.0-23.0-1.94","","521.354999858886","Stim/Stim-GB/MM_M.PNG","66","","","2","exp","100","2","1","C","b","true"
"fixation-image-keyboard-release-original","1201","501688","0.0-23.0-1.95","","508.3650001324713","Stim/Stim-GB/II_I.PNG","86","","","2","exp","100","1","0","C","v","true"
"html-keyboard-response","1202","539758","0.0-23.0-2.95-0.95","","37059.03499992564","Take a break. Feel free to start again by pressing Enter.","13","","","","","","","","","",""
"fixation-image-keyboard-release-original","1385","542388","0.0-23.0-1.96","","577.3849999532104","Stim/Stim-BG/NI_I.PNG","86","","","1","exp","400","1","0","C","v","true"
"fixation-image-keyboard-release-original","1386","544881","0.0-23.0-1.97","","485.02999963238835","Stim/Stim-BG/MN_I.PNG","86","","","1","exp","700","2","0","IC","v","true"
"fixation-image-keyboard-release-original","1387","547371","0.0-23.0-1.98","","478.56999980285764","Stim/Stim-BG/NM_M.PNG","66","","","1","exp","100","2","1","C","b","true"
"fixation-image-keyboard-release-original","1388","550014","0.0-23.0-1.99","","638.3250001817942","Stim/Stim-GB/NI_M.PNG","66","","","1","exp","700","1","1","IC","b","true"
"fixation-image-keyboard-release-original","1389","552759","0.0-23.0-1.100","","732.9699997790158","Stim/Stim-GB/II_I.PNG","86","","","2","exp","700","1","0","C","v","true"
"fixation-image-keyboard-release-original","1390","555320","0.0-23.0-1.101","","554.47500012815","Stim/Stim-GB/II_I.PNG","86","","","2","exp","700","1","0","C","v","true"
"fixation-image-keyboard-release-original","1391","557827","0.0-23.0-1.102","","488.63499984145164","Stim/Stim-BG/MM_M.PNG","66","","","2","exp","100","2","1","C","b","true"
"fixation-image-keyboard-release-original","1392","560440","0.0-23.0-1.103","","598.6500000581145","Stim/Stim-GB/MN_I.PNG","86","","","1","exp","700","2","0","IC","v","true"
"fixation-image-keyboard-release-original","1393","562984","0.0-23.0-1.104","","525.9400000795722","Stim/Stim-GB/II_I.PNG","86","","","2","exp","400","1","0","C","v","true"
"fixation-image-keyboard-release-original","1394","565483","0.0-23.0-1.105","","486.0799997113645","Stim/Stim-BG/NM_I.PNG","86","","","1","exp","400","2","0","IC","v","true"
"fixation-image-keyboard-release-original","1395","568336","0.0-23.0-1.106","","837.5200000591576","Stim/Stim-BG/NI_I.PNG","86","","","1","exp","100","1","0","C","v","true"
"fixation-image-keyboard-release-original","1396","570797","0.0-23.0-1.107","","442.7350000478327","Stim/Stim-BG/MN_I.PNG","86","","","1","exp","400","2","0","IC","v","true"
"fixation-image-keyboard-release-original","1397","573278","0.0-23.0-1.108","","456.7650002427399","Stim/Stim-BG/IN_I.PNG","86","","","1","exp","700","1","0","C","v","true"
"fixation-image-keyboard-release-original","1398","575827","0.0-23.0-1.109","","538.7300001457334","Stim/Stim-BG/MM_I.PNG","86","","","2","exp","400","2","0","IC","v","true"
"fixation-image-keyboard-release-original","1399","578490","0.0-23.0-1.110","","653.7250000983477","Stim/Stim-GB/MM_M.PNG","66","","","2","exp","400","2","1","C","b","true"
"fixation-image-keyboard-release-original","1400","581086","0.0-23.0-1.111","","564.1899998299778","Stim/Stim-BG/NI_M.PNG","66","","","1","exp","400","1","1","IC","b","true"
"fixation-image-keyboard-release-original","1401","583621","0.0-23.0-1.112","","521.4450000785291","Stim/Stim-GB/MM_I.PNG","66","","","2","exp","700","2","0","IC","v","false"
"fixation-image-keyboard-release-original","1402","586249","0.0-23.0-1.113","","617.7700003609061","Stim/Stim-GB/MN_I.PNG","86","","","1","exp","400","2","0","IC","v","true"
"fixation-image-keyboard-release-original","1403","588891","0.0-23.0-1.114","","634.7650000825524","Stim/Stim-GB/II_I.PNG","86","","","2","exp","400","1","0","C","v","true"
"fixation-image-keyboard-release-original","1404","591530","0.0-23.0-1.115","","626.7899996601045","Stim/Stim-GB/MM_I.PNG","86","","","2","exp","400","2","0","IC","v","true"
"fixation-image-keyboard-release-original","1405","594150","0.0-23.0-1.116","","610.9250001609325","Stim/Stim-BG/IN_I.PNG","86","","","1","exp","700","1","0","C","v","true"
"fixation-image-keyboard-release-original","1406","596717","0.0-23.0-1.117","","556.2649997882545","Stim/Stim-GB/MN_I.PNG","86","","","1","exp","400","2","0","IC","v","true"
"fixation-image-keyboard-release-original","1407","599270","0.0-23.0-1.118","","546.5450002811849","Stim/Stim-BG/NM_I.PNG","86","","","1","exp","400","2","0","IC","v","true"
"fixation-image-keyboard-release-original","1408","601788","0.0-23.0-1.119","","503.0749998986721","Stim/Stim-BG/II_I.PNG","86","","","2","exp","100","1","0","C","v","true"
"fixation-image-keyboard-release-original","1409","604311","0.0-23.0-1.120","","512.3250000178814","Stim/Stim-GB/MN_I.PNG","86","","","1","exp","100","2","0","IC","v","true"
"fixation-image-keyboard-release-original","1410","606982","0.0-23.0-1.121","","653.2699996605515","Stim/Stim-GB/II_M.PNG","66","","","2","exp","100","1","1","IC","b","true"
"fixation-image-keyboard-release-original","1411","609555","0.0-23.0-1.122","","557.4949998408556","Stim/Stim-BG/MM_M.PNG","66","","","2","exp","400","2","1","C","b","true"
"fixation-image-keyboard-release-original","1412","612070","0.0-23.0-1.123","","497.22000025212765","Stim/Stim-GB/NI_I.PNG","86","","","1","exp","400","1","0","C","v","true"
"fixation-image-keyboard-release-original","1413","614540","0.0-23.0-1.124","","456.3649999909103","Stim/Stim-GB/II_I.PNG","86","","","2","exp","100","1","0","C","v","true"
"fixation-image-keyboard-release-original","1414","616967","0.0-23.0-1.125","","417.794999666512","Stim/Stim-GB/NM_I.PNG","86","","","1","exp","700","2","0","IC","v","true"
"fixation-image-keyboard-release-original","1415","619628","0.0-23.0-1.126","","645.6100000068545","Stim/Stim-BG/II_M.PNG","66","","","2","exp","400","1","1","IC","b","true"
"fixation-image-keyboard-release-original","1416","622261","0.0-23.0-1.127","","611.849999986589","Stim/Stim-BG/II_M.PNG","66","","","2","exp","400","1","1","IC","b","true"
"fixation-image-keyboard-release-original","1417","625033","0.0-23.0-1.128","","764.4150000996888","Stim/Stim-GB/II_M.PNG","66","","","2","exp","700","1","1","IC","b","true"
"fixation-image-keyboard-release-original","1418","627573","0.0-23.0-1.129","","521.7150002717972","Stim/Stim-BG/NI_I.PNG","66","","","1","exp","700","1","0","C","v","false"
"fixation-image-keyboard-release-original","1419","630251","0.0-23.0-1.130","","662.3849999159575","Stim/Stim-BG/IN_M.PNG","66","","","1","exp","100","1","1","IC","b","true"
"fixation-image-keyboard-release-original","1420","632856","0.0-23.0-1.131","","591.4599997922778","Stim/Stim-BG/MM_M.PNG","66","","","2","exp","700","2","1","C","b","true"
"fixation-image-keyboard-release-original","1421","635487","0.0-23.0-1.132","","626.1149998754263","Stim/Stim-GB/MM_I.PNG","86","","","2","exp","400","2","0","IC","v","true"
"fixation-image-keyboard-release-original","1422","638071","0.0-23.0-1.133","","559.9399995990098","Stim/Stim-BG/NM_M.PNG","66","","","1","exp","700","2","1","C","b","true"
"fixation-image-keyboard-release-original","1423","640638","0.0-23.0-1.134","","553.5500003024936","Stim/Stim-GB/IN_M.PNG","66","","","1","exp","700","1","1","IC","b","true"
"fixation-image-keyboard-release-original","1424","643383","0.0-23.0-1.135","","738.7850000523031","Stim/Stim-BG/NM_I.PNG","86","","","1","exp","100","2","0","IC","v","true"
"fixation-image-keyboard-release-original","1425","645933","0.0-23.0-1.136","","542.3550000414252","Stim/Stim-BG/MN_M.PNG","66","","","1","exp","400","2","1","C","b","true"
"fixation-image-keyboard-release-original","1426","648553","0.0-23.0-1.137","","613.0100004374981","Stim/Stim-GB/II_I.PNG","86","","","2","exp","700","1","0","C","v","true"
"fixation-image-keyboard-release-original","1427","651134","0.0-23.0-1.138","","572.5949998013675","Stim/Stim-GB/II_M.PNG","66","","","2","exp","700","1","1","IC","b","true"
"fixation-image-keyboard-release-original","1428","653701","0.0-23.0-1.139","","559.5450000837445","Stim/Stim-GB/MM_M.PNG","66","","","2","exp","700","2","1","C","b","true"
"fixation-image-keyboard-release-original","1429","656418","0.0-23.0-1.140","","690.1249997317791","Stim/Stim-GB/MM_I.PNG","86","","","2","exp","700","2","0","IC","v","true"
"fixation-image-keyboard-release-original","1430","659044","0.0-23.0-1.141","","608.8000000454485","Stim/Stim-BG/MM_I.PNG","86","","","2","exp","100","2","0","IC","v","true"
"fixation-image-keyboard-release-original","1431","661595","0.0-23.0-1.142","","539.8349999450147","Stim/Stim-GB/NI_M.PNG","66","","","1","exp","100","1","1","IC","b","true"
"fixation-image-keyboard-release-original","1432","664106","0.0-23.0-1.143","","489.9450000375509","Stim/Stim-GB/NI_M.PNG","66","","","1","exp","700","1","1","IC","b","true"
"html-keyboard-response","1433","762143","0.0-23.0-2.143-0.143","","97034.05000036582","Take a break. Feel free to start again by pressing Enter.","13","","","","","","","","","",""
"fixation-image-keyboard-release-original","1562","764305","0.0-23.0-1.144","","458.5500000976026","Stim/Stim-GB/NI_I.PNG","86","","","1","exp","400","1","0","C","v","true"
"fixation-image-keyboard-release-original","1563","766995","0.0-23.0-1.145","","685.374999884516","Stim/Stim-GB/MN_I.PNG","86","","","1","exp","700","2","0","IC","v","true"
"fixation-image-keyboard-release-original","1564","769423","0.0-23.0-1.146","","410.00499995425344","Stim/Stim-GB/II_M.PNG","86","","","2","exp","700","1","1","IC","b","false"
"fixation-image-keyboard-release-original","1565","772008","0.0-23.0-1.147","","579.884999897331","Stim/Stim-BG/II_M.PNG","66","","","2","exp","700","1","1","IC","b","true"
"fixation-image-keyboard-release-original","1566","774578","0.0-23.0-1.148","","552.7349999174476","Stim/Stim-BG/MN_M.PNG","66","","","1","exp","100","2","1","C","b","true"
"fixation-image-keyboard-release-original","1567","777165","0.0-23.0-1.149","","580.684999935329","Stim/Stim-GB/MM_I.PNG","86","","","2","exp","100","2","0","IC","v","true"
"fixation-image-keyboard-release-original","1568","779756","0.0-23.0-1.150","","571.350000333041","Stim/Stim-GB/NM_M.PNG","66","","","1","exp","700","2","1","C","b","true"
"fixation-image-keyboard-release-original","1569","782296","0.0-23.0-1.151","","521.4300001971424","Stim/Stim-BG/MM_I.PNG","86","","","2","exp","400","2","0","IC","v","true"
"fixation-image-keyboard-release-original","1570","785027","0.0-23.0-1.152","","717.3999999649823","Stim/Stim-GB/II_I.PNG","86","","","2","exp","700","1","0","C","v","true"
"fixation-image-keyboard-release-original","1571","787585","0.0-23.0-1.153","","546.0950001142919","Stim/Stim-BG/MN_I.PNG","86","","","1","exp","700","2","0","IC","v","true"
"fixation-image-keyboard-release-original","1572","789980","0.0-23.0-1.154","","380.0100004300475","Stim/Stim-BG/II_M.PNG","66","","","2","exp","700","1","1","IC","b","true"
"fixation-image-keyboard-release-original","1573","792530","0.0-23.0-1.155","","529.3149999342859","Stim/Stim-GB/MN_M.PNG","66","","","1","exp","400","2","1","C","b","true"
"fixation-image-keyboard-release-original","1574","795207","0.0-23.0-1.156","","667.1849996782839","Stim/Stim-GB/MM_I.PNG","86","","","2","exp","400","2","0","IC","v","true"
"fixation-image-keyboard-release-original","1575","797553","0.0-23.0-1.157","","331.48999977856874","Stim/Stim-BG/IN_M.PNG","86","","","1","exp","100","1","1","IC","b","false"
"fixation-image-keyboard-release-original","1576","800278","0.0-23.0-1.158","","712.5999997369945","Stim/Stim-GB/MM_I.PNG","86","","","2","exp","100","2","0","IC","v","true"
"fixation-image-keyboard-release-original","1577","803071","0.0-23.0-1.159","","782.7800000086427","Stim/Stim-GB/IN_I.PNG","86","","","1","exp","400","1","0","C","v","true"
"fixation-image-keyboard-release-original","1578","805672","0.0-23.0-1.160","","580.7349998503923","Stim/Stim-BG/II_I.PNG","86","","","2","exp","100","1","0","C","v","true"
"fixation-image-keyboard-release-original","1579","808196","0.0-23.0-1.161","","515.9800001420081","Stim/Stim-GB/II_I.PNG","86","","","2","exp","400","1","0","C","v","true"
"fixation-image-keyboard-release-original","1580","810871","0.0-23.0-1.162","","667.9849997162819","Stim/Stim-GB/II_M.PNG","66","","","2","exp","400","1","1","IC","b","true"
"fixation-image-keyboard-release-original","1581","813399","0.0-23.0-1.163","","514.5050003193319","Stim/Stim-BG/II_M.PNG","66","","","2","exp","400","1","1","IC","b","true"
"fixation-image-keyboard-release-original","1582","815985","0.0-23.0-1.164","","571.1300000548363","Stim/Stim-GB/IN_I.PNG","86","","","1","exp","100","1","0","C","v","true"
"fixation-image-keyboard-release-original","1583","818540","0.0-23.0-1.165","","538.1599999964237","Stim/Stim-BG/II_I.PNG","86","","","2","exp","700","1","0","C","v","true"
"fixation-image-keyboard-release-original","1584","821176","0.0-23.0-1.166","","618.1549998000264","Stim/Stim-GB/IN_M.PNG","66","","","1","exp","100","1","1","IC","b","true"
"fixation-image-keyboard-release-original","1585","823681","0.0-23.0-1.167","","492.7249997854233","Stim/Stim-GB/MM_M.PNG","66","","","2","exp","100","2","1","C","b","true"
"fixation-image-keyboard-release-original","1586","826281","0.0-23.0-1.168","","583.7900000624359","Stim/Stim-GB/MM_M.PNG","66","","","2","exp","100","2","1","C","b","true"
"fixation-image-keyboard-release-original","1587","828790","0.0-23.0-1.169","","487.2800000011921","Stim/Stim-GB/II_I.PNG","86","","","2","exp","400","1","0","C","v","true"
"fixation-image-keyboard-release-original","1588","831278","0.0-23.0-1.170","","477.5550002232194","Stim/Stim-BG/II_M.PNG","66","","","2","exp","100","1","1","IC","b","true"
"fixation-image-keyboard-release-original","1589","834093","0.0-23.0-1.171","","806.3999996520579","Stim/Stim-GB/II_M.PNG","66","","","2","exp","100","1","1","IC","b","true"
"fixation-image-keyboard-release-original","1590","836616","0.0-23.0-1.172","","506.5100002102554","Stim/Stim-BG/II_M.PNG","66","","","2","exp","700","1","1","IC","b","true"
"fixation-image-keyboard-release-original","1591","839198","0.0-23.0-1.173","","561.5599998272955","Stim/Stim-GB/NM_M.PNG","66","","","1","exp","400","2","1","C","b","true"
"fixation-image-keyboard-release-original","1592","841619","0.0-23.0-1.174","","408.1000001169741","Stim/Stim-BG/NM_M.PNG","66","","","1","exp","100","2","1","C","b","true"
"fixation-image-keyboard-release-original","1593","844068","0.0-23.0-1.175","","439.5900000818074","Stim/Stim-BG/II_M.PNG","66","","","2","exp","100","1","1","IC","b","true"
"fixation-image-keyboard-release-original","1594","846625","0.0-23.0-1.176","","552.1550001576543","Stim/Stim-GB/MM_M.PNG","66","","","2","exp","400","2","1","C","b","true"
"fixation-image-keyboard-release-original","1595","849169","0.0-23.0-1.177","","523.3399998396635","Stim/Stim-BG/II_I.PNG","66","","","2","exp","100","1","0","C","v","false"
"fixation-image-keyboard-release-original","1596","851640","0.0-23.0-1.178","","455.6699995882809","Stim/Stim-BG/NI_M.PNG","66","","","1","exp","700","1","1","IC","b","true"
"fixation-image-keyboard-release-original","1597","854324","0.0-23.0-1.179","","673.5999998636544","Stim/Stim-GB/MM_I.PNG","86","","","2","exp","400","2","0","IC","v","true"
"fixation-image-keyboard-release-original","1598","857057","0.0-23.0-1.180","","715.1549998670816","Stim/Stim-GB/IN_M.PNG","66","","","1","exp","100","1","1","IC","b","true"
"fixation-image-keyboard-release-original","1599","859746","0.0-23.0-1.181","","677.0800002850592","Stim/Stim-BG/II_M.PNG","66","","","2","exp","700","1","1","IC","b","true"
"fixation-image-keyboard-release-original","1600","862326","0.0-23.0-1.182","","562.865000218153","Stim/Stim-GB/NI_M.PNG","66","","","1","exp","100","1","1","IC","b","true"
"fixation-image-keyboard-release-original","1601","864753","0.0-23.0-1.183","","416.6749999858439","Stim/Stim-BG/II_I.PNG","86","","","2","exp","400","1","0","C","v","true"
"fixation-image-keyboard-release-original","1602","867357","0.0-23.0-1.184","","585.8750003390014","Stim/Stim-BG/II_I.PNG","86","","","2","exp","100","1","0","C","v","true"
"fixation-image-keyboard-release-original","1603","869823","0.0-23.0-1.185","","446.87499990686774","Stim/Stim-BG/NM_M.PNG","66","","","1","exp","700","2","1","C","b","true"
"fixation-image-keyboard-release-original","1604","872231","0.0-23.0-1.186","","399.449999909848","Stim/Stim-BG/NM_I.PNG","86","","","1","exp","100","2","0","IC","v","true"
"fixation-image-keyboard-release-original","1605","874710","0.0-23.0-1.187","","467.1900002285838","Stim/Stim-BG/NM_M.PNG","66","","","1","exp","400","2","1","C","b","true"
"fixation-image-keyboard-release-original","1606","877127","0.0-23.0-1.188","","413.05499989539385","Stim/Stim-GB/IN_M.PNG","66","","","1","exp","400","1","1","IC","b","true"
"fixation-image-keyboard-release-original","1607","879600","0.0-23.0-1.189","","461.3100001588464","Stim/Stim-BG/MM_I.PNG","86","","","2","exp","700","2","0","IC","v","true"
"fixation-image-keyboard-release-original","1608","882246","0.0-23.0-1.190","","634.275000076741","Stim/Stim-GB/MM_M.PNG","66","","","2","exp","400","2","1","C","b","true"
"fixation-image-keyboard-release-original","1609","884848","0.0-23.0-1.191","","583.7249998003244","Stim/Stim-BG/II_M.PNG","66","","","2","exp","100","1","1","IC","b","true"
"call-function","1610","885854","0.0-24.0","","","","","","","","","","","","","",""
"survey-html-form","1611","922791","0.0-25.0","","36934.865000192076","","","{""hands2"":""Right""}","","","","","","","","",""
"html-keyboard-response","1612","932277","0.0-26.0","","9485.934999771416","<p><h1>This is the end of the experiment.</h1></p><p>Please <a href='Debrief.pdf' target='_blank'>Click Here</a> (this will open a new window) to read more about the study.</p><p>Press ENTER to end the experiment (you will be sent to Prolific - if something goes wrong, the completion code for this study is: 3F11CBBF).</p>","13","","","","","","","","","",""
"pavlovia","1613","932288","0.0-27.0","","","","","","","","","","","","","",""
