"trial_type","trial_index","time_elapsed","internal_node_id","value","rt","stimulus","key_press","responses","success","hand","test","gap","finger","cue","con","correct_response","correct"
"pavlovia","0","3","0.0-0.0","","","","","","","","","","","","","",""
"call-function","1","3","0.0-1.0","","","","","","","","","","","","","",""
"html-keyboard-response","2","110087","0.0-2.0","","110083.6099999724","<div class = 'my_window'><p><h1>Welcome!</h1><br><p><p>This experiment is adminterested by Carl Michael Galang (McMaster University), Dr. Emiel Cracco (Ghent University), Dr. Marcel Brass (Humboldt University of Berlin), & Dr. Sukhvinder Obhi (McMaster University).</p><p>The purpose of this study is to explore basic perceptual processing mechanisms.</p><p>Information gathered during this study will be written up for publication in an academic journal. While there are no direct benefits to you taking part in this study (other than learning more about the research topic and getting paid on Prolific), the results of this study will provide us with a better understanding of perceptual and sensory processes. To learn about this study, particularly in the terms of any associated risks or harms, how confidentiality and anonymity will be handled, withdrawal procedures, incentives that are promised, how to obtain information about the results, etc., please read the accompanying letter of information - <a href='LOI.pdf' target='_blank'>Click Here</a> (this will open a new window).</p><p>This study should take around 10min to complete.</p><p>If you have questions or need more information about the study itself, please contact me at: galangc@mcmaster.ca. This study has been reviewed by the McMaster University Research Ethics Board and received ethics clearance. If you have concerns or questions about your rights as a participant or about the way the study is conducted, please contact the McMaster Research Ethics Secretariat at ethicsoffice@mcmaster.ca.</p><br><p><h1>CONSENT</h1></p><p>I have read the information presented in the letter of information and I agree to participate in this study.</p><p>By pressing Enter, I consent to the above.<p>","13","","","","","","","","","",""
"survey-html-form","3","118665","0.0-3.0","","8577.240000013262","","","{""1"":""5ee8c79585a3301e5867c09a""}","","","","","","","","",""
"fullscreen","4","149796","0.0-4.0","","","","","","true","","","","","","","",""
"call-function","5","149797","0.0-5.0","","","","","","","","","","","","","",""
"html-keyboard-response","6","267349","0.0-6.0","","117550.74500001501","<div class = 'my_window'><h1>Instructions</h1><p>Your task in this experiment is to respond to the letters I or M as they appear on the screen. Unlike most experiments, your task will be to <strong><u>release</u></strong> keys (not push).</p><p>Before each trial starts, please ensure that you keep the <strong><u>V key</u></strong> and <strong><u>B key</u></strong> depressed with your <strong><u>right index finger</u></strong> on the <strong><u>V key</u></strong> and your <strong><u>right middle finger</u></strong> on the <strong><u>B key</u></strong> (see image below). Responses on this experiment will consist of lifting your <strong><u>right index finger</u></strong> to release the <strong><u>V key</u></strong> if you see the letter <strong><u>I</u></strong> or lifting your <strong><u>right middle finger</u></strong> to release the <strong><u>B key</u></strong> if you see the letter <strong><u>M</u></strong> as fast as you can. It is important that you <strong><u>only use your right hand</u></strong> to do the task.</p><p><img src='keyboard_img.png'></p><p>While you complete this task, there will be a couple of hands moving in the background. Ignore them and focus on the task.</p><p>Press ENTER to continue.</p></div>","13","","","","","","","","","",""
"html-keyboard-response","7","291808","0.0-7.0","","24458.32999999402","<div class = 'my_window'><h1>Practice</h1><p>You will first do a practice phase. In the practice phase, you will get feedback on your performance. The practice phase contains 10 trials, but will add an extra trial every time you respond incorrectly.</p><p><p>Before each trial starts, please ensure that you keep the <strong><u>V key</u></strong> and <strong><u>B key</u></strong> depressed with your <strong><u>right index finger</u></strong> on the <strong><u>V key</u></strong> and your <strong><u>right middle finger</u></strong> on the <strong><u>B key</u></strong> (see image below). Responses on this experiment will consist of lifting your <strong><u>right index finger</u></strong> to release the <strong><u>V key</u></strong> if you see the letter <strong><u>I</u></strong> or lifting your <strong><u>right middle finger</u></strong> to release the <strong><u>B key</u></strong> if you see the letter <strong><u>M</u></strong> as fast as you can. It is important that you <strong><u>only use your right hand</u></strong> to do the task.</p><p><img src='keyboard_img.png'></p><p>While you complete this task, there will be a couple of hands moving in the background. Ignore them and focus on the task.</p><p>This is a reaction time experiment, so please try to respond as fast as possible while at the same time minimizing mistakes.</p><p>Press ENTER to begin.</p></div>","13","","","","","","","","","",""
"fixation-image-keyboard-release-original","471","300321","0.0-8.0-1.0","","5166.700000001583","Stim/Stim-BG/II_I.PNG","86","","","2","exp","700","1","0","C","v","true"
"html-keyboard-response","472","301428","0.0-8.0-2.0","","null","<p> CORRECT </p>","null","","","","","","","","","",""
"fixation-image-keyboard-release-original","1029","306018","0.0-9.0-1.0","","752.1199999901","Stim/Stim-BG/MM_I.PNG","86","","","2","exp","400","2","0","IC","v","true"
"html-keyboard-response","1030","307138","0.0-9.0-2.0","","null","<p> CORRECT </p>","null","","","","","","","","","",""
"fixation-image-keyboard-release-original","1215","309558","0.0-10.0-1.0","","468.57999998610467","Stim/Stim-BG/NI_M.PNG","66","","","1","exp","400","1","1","IC","b","true"
"html-keyboard-response","1216","310674","0.0-10.0-2.0","","null","<p> CORRECT </p>","null","","","","","","","","","",""
"fixation-image-keyboard-release-original","1217","312465","0.0-11.0-1.0","","784.444999997504","Stim/Stim-GB/MM_M.PNG","66","","","2","exp","700","2","1","C","b","true"
"html-keyboard-response","1218","313569","0.0-11.0-2.0","","null","<p> CORRECT </p>","null","","","","","","","","","",""
"fixation-image-keyboard-release-original","1219","315072","0.0-12.0-1.0","","496.7250000045169","Stim/Stim-GB/MM_M.PNG","66","","","2","exp","400","2","1","C","b","true"
"html-keyboard-response","1220","316175","0.0-12.0-2.0","","null","<p> CORRECT </p>","null","","","","","","","","","",""
"fixation-image-keyboard-release-original","1221","317582","0.0-13.0-1.0","","395.54499997757375","Stim/Stim-GB/II_I.PNG","86","","","2","exp","400","1","0","C","v","true"
"html-keyboard-response","1222","318695","0.0-13.0-2.0","","null","<p> CORRECT </p>","null","","","","","","","","","",""
"fixation-image-keyboard-release-original","1228","320232","0.0-14.0-1.0","","516.3750000065193","Stim/Stim-BG/MN_M.PNG","86","","","1","exp","400","2","1","C","b","false"
"html-keyboard-response","1229","321338","0.0-14.0-2.0","","null","<p> INCORRECT </p>","null","","","","","","","","","",""
"fixation-image-keyboard-release-original","1233","322865","0.0-14.1-1.1","","503.39999998686835","Stim/Stim-GB/NM_M.PNG","66","","","1","exp","700","2","1","C","b","true"
"html-keyboard-response","1234","323986","0.0-14.1-2.1","","null","<p> CORRECT </p>","null","","","","","","","","","",""
"fixation-image-keyboard-release-original","1235","325981","0.0-15.0-1.0","","987.4699999927543","Stim/Stim-GB/II_M.PNG","66","","","2","exp","700","1","1","IC","b","true"
"html-keyboard-response","1236","327088","0.0-15.0-2.0","","null","<p> CORRECT </p>","null","","","","","","","","","",""
"fixation-image-keyboard-release-original","1237","329004","0.0-16.0-1.0","","906.7700000014156","Stim/Stim-GB/IN_M.PNG","66","","","1","exp","400","1","1","IC","b","true"
"html-keyboard-response","1238","330110","0.0-16.0-2.0","","null","<p> CORRECT </p>","null","","","","","","","","","",""
"fixation-image-keyboard-release-original","1239","331794","0.0-17.0-1.0","","667.2700000053737","Stim/Stim-GB/NM_I.PNG","86","","","1","exp","100","2","0","IC","v","true"
"html-keyboard-response","1240","332909","0.0-17.0-2.0","","null","<p> CORRECT </p>","null","","","","","","","","","",""
"call-function","1241","332910","0.0-18.0","","","","","","","","","","","","","",""
"survey-html-form","1242","338413","0.0-19.0","","5503.289999993285","","","{""hands"":""Right""}","","","","","","","","",""
"html-keyboard-response","1243","346450","0.0-20.0","","8036.450000014156","If you are using <strong><u>just</u></strong> your <strong></u>right hand</u></strong>, then good job! If not, please do so in the main part of the experiment.<br><br>Press Enter to continue","13","","","","","","","","","",""
"html-keyboard-response","1244","374631","0.0-21.0","","28180.260000022827","<div class = 'my_window'><h1>Main Trials</h1><p>Good Job! We will now begin the main trials. In the main trials, you will <strong>not</strong> get feedback. There are 192 trials overall. You will get a self-paced break every 48 trials.</p><p>Instructions Reminder: <p>Before each trial starts, please ensure that you keep the <strong><u>V key</u></strong> and <strong><u>B key</u></strong> depressed with your <strong><u>right index finger</u></strong> on the <strong><u>V key</u></strong> and your <strong><u>right middle finger</u></strong> on the <strong><u>B key</u></strong> (see image below). Responses on this experiment will consist of lifting your <strong><u>right index finger</u></strong> to release the <strong><u>V key</u></strong> if you see the letter <strong><u>I</u></strong> or lifting your <strong><u>right middle finger</u></strong> to release the <strong><u>B key</u></strong> if you see the letter <strong><u>M</u></strong> as fast as you can. It is important that you <strong><u>only use your right hand</u></strong> to do the task.</p><p><img src='keyboard_img.png'></p><p>While you complete this task, there will be a couple of hands moving in the background. Ignore them and focus on the task.</p><p>Remember: this is a reaction time experiment, so please try to respond as fast as possible while at the same time minimizing mistakes.</p><p>Press ENTER to begin.</p></div>","13","","","","","","","","","",""
"call-function","1245","374632","0.0-22.0","","","","","","","","","","","","","",""
"fixation-image-keyboard-release-original","1533","377738","0.0-23.0-1.0","","646.5699999826029","Stim/Stim-BG/MM_I.PNG","86","","","2","exp","700","2","0","IC","v","true"
"fixation-image-keyboard-release-original","1665","381091","0.0-23.0-1.1","","663.1350000097882","Stim/Stim-BG/NM_I.PNG","86","","","1","exp","100","2","0","IC","v","true"
"fixation-image-keyboard-release-original","1742","383933","0.0-23.0-1.2","","436.64499997976236","Stim/Stim-GB/IN_M.PNG","66","","","1","exp","100","1","1","IC","b","true"
"fixation-image-keyboard-release-original","1747","386759","0.0-23.0-1.3","","793.4600000153296","Stim/Stim-BG/II_M.PNG","66","","","2","exp","700","1","1","IC","b","true"
"fixation-image-keyboard-release-original","1748","389364","0.0-23.0-1.4","","593.460000003688","Stim/Stim-GB/II_M.PNG","66","","","2","exp","700","1","1","IC","b","true"
"fixation-image-keyboard-release-original","1749","391945","0.0-23.0-1.5","","571.460000006482","Stim/Stim-GB/MN_M.PNG","66","","","1","exp","400","2","1","C","b","true"
"fixation-image-keyboard-release-original","1750","394509","0.0-23.0-1.6","","542.7299999864772","Stim/Stim-GB/MM_I.PNG","86","","","2","exp","100","2","0","IC","v","true"
"fixation-image-keyboard-release-original","1751","397020","0.0-23.0-1.7","","490.4050000186544","Stim/Stim-BG/MM_M.PNG","66","","","2","exp","100","2","1","C","b","true"
"fixation-image-keyboard-release-original","1752","399580","0.0-23.0-1.8","","540.0249999947846","Stim/Stim-GB/II_M.PNG","66","","","2","exp","400","1","1","IC","b","true"
"fixation-image-keyboard-release-original","1753","402055","0.0-23.0-1.9","","471.045000012964","Stim/Stim-GB/NM_M.PNG","66","","","1","exp","700","2","1","C","b","true"
"fixation-image-keyboard-release-original","1754","404659","0.0-23.0-1.10","","593.75","Stim/Stim-BG/MM_M.PNG","66","","","2","exp","100","2","1","C","b","true"
"fixation-image-keyboard-release-original","1755","407289","0.0-23.0-1.11","","612.6199999998789","Stim/Stim-GB/IN_I.PNG","86","","","1","exp","400","1","0","C","v","true"
"fixation-image-keyboard-release-original","1849","410376","0.0-23.0-1.12","","597.6700000173878","Stim/Stim-GB/II_I.PNG","86","","","2","exp","100","1","0","C","v","true"
"fixation-image-keyboard-release-original","1850","412900","0.0-23.0-1.13","","514.7599999909289","Stim/Stim-GB/MN_I.PNG","86","","","1","exp","400","2","0","IC","v","true"
"fixation-image-keyboard-release-original","1851","415600","0.0-23.0-1.14","","679.3849999958184","Stim/Stim-GB/NI_I.PNG","86","","","1","exp","400","1","0","C","v","true"
"fixation-image-keyboard-release-original","1952","418673","0.0-23.0-1.15","","546.875","Stim/Stim-GB/IN_I.PNG","86","","","1","exp","400","1","0","C","v","true"
"fixation-image-keyboard-release-original","1953","421314","0.0-23.0-1.16","","617.7700000116602","Stim/Stim-GB/MM_M.PNG","66","","","2","exp","100","2","1","C","b","true"
"fixation-image-keyboard-release-original","1954","423988","0.0-23.0-1.17","","650.3049999882933","Stim/Stim-GB/MN_M.PNG","66","","","1","exp","700","2","1","C","b","true"
"fixation-image-keyboard-release-original","1955","426647","0.0-23.0-1.18","","631.8000000028405","Stim/Stim-BG/IN_M.PNG","66","","","1","exp","100","1","1","IC","b","true"
"fixation-image-keyboard-release-original","1956","429233","0.0-23.0-1.19","","569.3199999805074","Stim/Stim-BG/II_I.PNG","86","","","2","exp","400","1","0","C","v","true"
"fixation-image-keyboard-release-original","1957","431818","0.0-23.0-1.20","","573.1000000087079","Stim/Stim-GB/MM_I.PNG","86","","","2","exp","400","2","0","IC","v","true"
"fixation-image-keyboard-release-original","1958","434547","0.0-23.0-1.21","","710.3449999995064","Stim/Stim-GB/IN_M.PNG","66","","","1","exp","700","1","1","IC","b","true"
"fixation-image-keyboard-release-original","1959","437266","0.0-23.0-1.22","","700.7000000157859","Stim/Stim-BG/MM_M.PNG","66","","","2","exp","700","2","1","C","b","true"
"fixation-image-keyboard-release-original","1960","439793","0.0-23.0-1.23","","515.7499999913853","Stim/Stim-GB/II_M.PNG","66","","","2","exp","100","1","1","IC","b","true"
"fixation-image-keyboard-release-original","1961","442378","0.0-23.0-1.24","","570.0699999870267","Stim/Stim-GB/NM_I.PNG","86","","","1","exp","400","2","0","IC","v","true"
"fixation-image-keyboard-release-original","1962","445248","0.0-23.0-1.25","","853.4999999974389","Stim/Stim-BG/II_I.PNG","86","","","2","exp","700","1","0","C","v","true"
"fixation-image-keyboard-release-original","1963","447694","0.0-23.0-1.26","","438.32499999552965","Stim/Stim-BG/MM_I.PNG","86","","","2","exp","700","2","0","IC","v","true"
"fixation-image-keyboard-release-original","1964","450268","0.0-23.0-1.27","","557.4999999953434","Stim/Stim-BG/MN_I.PNG","86","","","1","exp","100","2","0","IC","v","true"
"fixation-image-keyboard-release-original","1965","452738","0.0-23.0-1.28","","452.02499997685663","Stim/Stim-BG/NI_M.PNG","66","","","1","exp","100","1","1","IC","b","true"
"fixation-image-keyboard-release-original","1966","455372","0.0-23.0-1.29","","620.5400000035297","Stim/Stim-BG/II_M.PNG","66","","","2","exp","400","1","1","IC","b","true"
"fixation-image-keyboard-release-original","1967","458052","0.0-23.0-1.30","","662.5849999836646","Stim/Stim-BG/IN_M.PNG","66","","","1","exp","400","1","1","IC","b","true"
"fixation-image-keyboard-release-original","1968","460708","0.0-23.0-1.31","","639.7249999863561","Stim/Stim-BG/II_M.PNG","66","","","2","exp","700","1","1","IC","b","true"
"fixation-image-keyboard-release-original","1969","463522","0.0-23.0-1.32","","802.4799999839161","Stim/Stim-GB/MN_I.PNG","86","","","1","exp","700","2","0","IC","v","true"
"fixation-image-keyboard-release-original","1970","466107","0.0-23.0-1.33","","570.9600000118371","Stim/Stim-BG/II_M.PNG","66","","","2","exp","400","1","1","IC","b","true"
"fixation-image-keyboard-release-original","1971","468637","0.0-23.0-1.34","","518.6899999971502","Stim/Stim-GB/NM_M.PNG","66","","","1","exp","400","2","1","C","b","true"
"fixation-image-keyboard-release-original","1972","477079","0.0-23.0-1.35","","6423.3449999883305","Stim/Stim-BG/IN_I.PNG","86","","","1","exp","100","1","0","C","v","true"
"fixation-image-keyboard-release-original","1973","479785","0.0-23.0-1.36","","696.5550000022631","Stim/Stim-BG/MM_M.PNG","66","","","2","exp","400","2","1","C","b","true"
"fixation-image-keyboard-release-original","1974","482504","0.0-23.0-1.37","","709.4100000103936","Stim/Stim-BG/NM_I.PNG","86","","","1","exp","100","2","0","IC","v","true"
"fixation-image-keyboard-release-original","1975","485007","0.0-23.0-1.38","","488.1149999855552","Stim/Stim-BG/IN_M.PNG","66","","","1","exp","100","1","1","IC","b","true"
"fixation-image-keyboard-release-original","1976","487602","0.0-23.0-1.39","","580.8750000142027","Stim/Stim-BG/II_M.PNG","66","","","2","exp","700","1","1","IC","b","true"
"fixation-image-keyboard-release-original","1977","490216","0.0-23.0-1.40","","599.6749999758322","Stim/Stim-GB/NI_I.PNG","86","","","1","exp","100","1","0","C","v","true"
"fixation-image-keyboard-release-original","1978","492889","0.0-23.0-1.41","","657.7150000084657","Stim/Stim-GB/II_M.PNG","66","","","2","exp","100","1","1","IC","b","true"
"fixation-image-keyboard-release-original","1979","495467","0.0-23.0-1.42","","559.5599999942351","Stim/Stim-BG/MM_I.PNG","86","","","2","exp","100","2","0","IC","v","true"
"fixation-image-keyboard-release-original","1980","497991","0.0-23.0-1.43","","494.4499999983236","Stim/Stim-GB/II_I.PNG","86","","","2","exp","400","1","0","C","v","true"
"fixation-image-keyboard-release-original","4421","513168","0.0-23.0-1.44","","545.3600000182632","Stim/Stim-BG/NI_I.PNG","86","","","1","exp","100","1","0","C","v","true"
"fixation-image-keyboard-release-original","4422","515821","0.0-23.0-1.45","","635.630000004312","Stim/Stim-GB/II_M.PNG","66","","","2","exp","700","1","1","IC","b","true"
"fixation-image-keyboard-release-original","4423","518384","0.0-23.0-1.46","","548.5150000022259","Stim/Stim-BG/II_M.PNG","66","","","2","exp","100","1","1","IC","b","true"
"fixation-image-keyboard-release-original","4424","521041","0.0-23.0-1.47","","632.7900000032969","Stim/Stim-GB/IN_M.PNG","66","","","1","exp","400","1","1","IC","b","true"
"html-keyboard-response","4425","527719","0.0-23.0-2.47-0.47","","5668.914999987464","Take a break. Feel free to start again by pressing Enter.","13","","","","","","","","","",""
"fixation-image-keyboard-release-original","5085","532644","0.0-23.0-1.48","","566.064999991795","Stim/Stim-BG/II_I.PNG","86","","","2","exp","100","1","0","C","v","true"
"fixation-image-keyboard-release-original","5086","535119","0.0-23.0-1.49","","454.43000001250766","Stim/Stim-BG/NM_M.PNG","66","","","1","exp","700","2","1","C","b","true"
"fixation-image-keyboard-release-original","5087","537820","0.0-23.0-1.50","","679.0800000017043","Stim/Stim-BG/MM_I.PNG","86","","","2","exp","400","2","0","IC","v","true"
"fixation-image-keyboard-release-original","5088","540419","0.0-23.0-1.51","","587.6600000192411","Stim/Stim-BG/MM_I.PNG","86","","","2","exp","400","2","0","IC","v","true"
"fixation-image-keyboard-release-original","5089","542763","0.0-23.0-1.52","","327.5849999918137","Stim/Stim-GB/MM_M.PNG","66","","","2","exp","700","2","1","C","b","true"
"fixation-image-keyboard-release-original","5090","545466","0.0-23.0-1.53","","679.5949999941513","Stim/Stim-BG/MN_M.PNG","66","","","1","exp","100","2","1","C","b","true"
"fixation-image-keyboard-release-original","5091","547992","0.0-23.0-1.54","","500.6149999971967","Stim/Stim-GB/II_I.PNG","86","","","2","exp","400","1","0","C","v","true"
"fixation-image-keyboard-release-original","5092","550491","0.0-23.0-1.55","","489.6700000099372","Stim/Stim-GB/MM_I.PNG","86","","","2","exp","400","2","0","IC","v","true"
"fixation-image-keyboard-release-original","5093","552886","0.0-23.0-1.56","","368.45000000903383","Stim/Stim-GB/II_M.PNG","66","","","2","exp","700","1","1","IC","b","true"
"fixation-image-keyboard-release-original","5094","555347","0.0-23.0-1.57","","452.57500000298023","Stim/Stim-BG/MM_M.PNG","66","","","2","exp","700","2","1","C","b","true"
"fixation-image-keyboard-release-original","5095","557729","0.0-23.0-1.58","","365.4800000076648","Stim/Stim-GB/NM_M.PNG","66","","","1","exp","100","2","1","C","b","true"
"fixation-image-keyboard-release-original","5096","560173","0.0-23.0-1.59","","417.60499999509193","Stim/Stim-GB/MN_M.PNG","66","","","1","exp","400","2","1","C","b","true"
"fixation-image-keyboard-release-original","5097","562627","0.0-23.0-1.60","","443.6899999855086","Stim/Stim-BG/NI_I.PNG","86","","","1","exp","700","1","0","C","v","true"
"fixation-image-keyboard-release-original","5098","565111","0.0-23.0-1.61","","474.0999999921769","Stim/Stim-GB/MM_M.PNG","66","","","2","exp","700","2","1","C","b","true"
"fixation-image-keyboard-release-original","5099","567553","0.0-23.0-1.62","","432.3650000151247","Stim/Stim-BG/IN_I.PNG","86","","","1","exp","100","1","0","C","v","true"
"fixation-image-keyboard-release-original","5100","570019","0.0-23.0-1.63","","444.21000001602806","Stim/Stim-GB/MM_M.PNG","66","","","2","exp","400","2","1","C","b","true"
"fixation-image-keyboard-release-original","5101","572446","0.0-23.0-1.64","","411.62500000791624","Stim/Stim-GB/II_M.PNG","66","","","2","exp","700","1","1","IC","b","true"
"fixation-image-keyboard-release-original","5102","574950","0.0-23.0-1.65","","474.900000001071","Stim/Stim-BG/MM_M.PNG","66","","","2","exp","100","2","1","C","b","true"
"fixation-image-keyboard-release-original","5103","577527","0.0-23.0-1.66","","549.5649999938905","Stim/Stim-GB/MM_I.PNG","86","","","2","exp","700","2","0","IC","v","true"
"fixation-image-keyboard-release-original","5104","579942","0.0-23.0-1.67","","413.35000001708977","Stim/Stim-GB/MM_M.PNG","66","","","2","exp","700","2","1","C","b","true"
"fixation-image-keyboard-release-original","5105","582427","0.0-23.0-1.68","","472.2149999870453","Stim/Stim-GB/II_M.PNG","66","","","2","exp","400","1","1","IC","b","true"
"fixation-image-keyboard-release-original","11729","619490","0.0-23.0-1.69","","677.285000012489","Stim/Stim-GB/MM_I.PNG","86","","","2","exp","100","2","0","IC","v","true"
"fixation-image-keyboard-release-original","11730","622011","0.0-23.0-1.70","","502.83500002115034","Stim/Stim-BG/II_I.PNG","86","","","2","exp","700","1","0","C","v","true"
"fixation-image-keyboard-release-original","11731","624667","0.0-23.0-1.71","","634.8899999866262","Stim/Stim-BG/NM_M.PNG","66","","","1","exp","400","2","1","C","b","true"
"fixation-image-keyboard-release-original","11732","627247","0.0-23.0-1.72","","557.585000002291","Stim/Stim-BG/II_M.PNG","66","","","2","exp","100","1","1","IC","b","true"
"fixation-image-keyboard-release-original","11733","629701","0.0-23.0-1.73","","437.869999994291","Stim/Stim-GB/II_I.PNG","86","","","2","exp","100","1","0","C","v","true"
"fixation-image-keyboard-release-original","11734","632088","0.0-23.0-1.74","","375.50999998347834","Stim/Stim-GB/NM_M.PNG","66","","","1","exp","400","2","1","C","b","true"
"fixation-image-keyboard-release-original","11735","634561","0.0-23.0-1.75","","445.4900000127964","Stim/Stim-GB/NI_M.PNG","66","","","1","exp","700","1","1","IC","b","true"
"fixation-image-keyboard-release-original","11736","637069","0.0-23.0-1.76","","498.554999998305","Stim/Stim-GB/II_I.PNG","86","","","2","exp","700","1","0","C","v","true"
"fixation-image-keyboard-release-original","11737","639835","0.0-23.0-1.77","","753.694999992149","Stim/Stim-GB/NM_I.PNG","86","","","1","exp","700","2","0","IC","v","true"
"fixation-image-keyboard-release-original","11738","642459","0.0-23.0-1.78","","618.4250000223983","Stim/Stim-BG/II_I.PNG","86","","","2","exp","700","1","0","C","v","true"
"fixation-image-keyboard-release-original","11739","645056","0.0-23.0-1.79","","592.4450000165962","Stim/Stim-BG/II_M.PNG","66","","","2","exp","400","1","1","IC","b","true"
"fixation-image-keyboard-release-original","11740","647582","0.0-23.0-1.80","","509.7750000131782","Stim/Stim-BG/NI_M.PNG","66","","","1","exp","100","1","1","IC","b","true"
"fixation-image-keyboard-release-original","11741","650035","0.0-23.0-1.81","","422.5700000242796","Stim/Stim-BG/NI_M.PNG","66","","","1","exp","400","1","1","IC","b","true"
"fixation-image-keyboard-release-original","11742","653246","0.0-23.0-1.82","","1193.6799999966752","Stim/Stim-GB/NM_M.PNG","66","","","1","exp","100","2","1","C","b","true"
"fixation-image-keyboard-release-original","14385","672161","0.0-23.0-1.83","","558.3999999798834","Stim/Stim-GB/MM_I.PNG","86","","","2","exp","400","2","0","IC","v","true"
"fixation-image-keyboard-release-original","14386","674659","0.0-23.0-1.84","","491.67499999748543","Stim/Stim-GB/IN_M.PNG","66","","","1","exp","400","1","1","IC","b","true"
"fixation-image-keyboard-release-original","14387","677137","0.0-23.0-1.85","","460.04499998525716","Stim/Stim-BG/II_I.PNG","86","","","2","exp","100","1","0","C","v","true"
"fixation-image-keyboard-release-original","14388","679720","0.0-23.0-1.86","","552.4900000018533","Stim/Stim-GB/MM_I.PNG","86","","","2","exp","700","2","0","IC","v","true"
"fixation-image-keyboard-release-original","14389","682223","0.0-23.0-1.87","","492.2650000080466","Stim/Stim-GB/II_I.PNG","86","","","2","exp","700","1","0","C","v","true"
"fixation-image-keyboard-release-original","14390","684935","0.0-23.0-1.88","","687.355000001844","Stim/Stim-GB/NM_I.PNG","86","","","1","exp","100","2","0","IC","v","true"
"fixation-image-keyboard-release-original","14391","687486","0.0-23.0-1.89","","526.6149999806657","Stim/Stim-GB/MM_M.PNG","66","","","2","exp","700","2","1","C","b","true"
"fixation-image-keyboard-release-original","14392","689998","0.0-23.0-1.90","","502.0850000146311","Stim/Stim-GB/NI_I.PNG","86","","","1","exp","700","1","0","C","v","true"
"fixation-image-keyboard-release-original","14393","692561","0.0-23.0-1.91","","552.6149999932386","Stim/Stim-BG/II_I.PNG","86","","","2","exp","100","1","0","C","v","true"
"fixation-image-keyboard-release-original","14394","695073","0.0-23.0-1.92","","501.9949999987148","Stim/Stim-BG/NI_I.PNG","86","","","1","exp","400","1","0","C","v","true"
"fixation-image-keyboard-release-original","14395","697543","0.0-23.0-1.93","","464.31999999913387","Stim/Stim-BG/MM_M.PNG","66","","","2","exp","400","2","1","C","b","true"
"fixation-image-keyboard-release-original","14396","699999","0.0-23.0-1.94","","439.0049999929033","Stim/Stim-GB/II_I.PNG","86","","","2","exp","700","1","0","C","v","true"
"fixation-image-keyboard-release-original","14397","702436","0.0-23.0-1.95","","428.9799999969546","Stim/Stim-GB/IN_I.PNG","86","","","1","exp","700","1","0","C","v","true"
"html-keyboard-response","14398","705399","0.0-23.0-2.95-0.95","","1957.9800000065006","Take a break. Feel free to start again by pressing Enter.","13","","","","","","","","","",""
"fixation-image-keyboard-release-original","14704","708440","0.0-23.0-1.96","","497.93500002124347","Stim/Stim-GB/IN_I.PNG","86","","","1","exp","100","1","0","C","v","true"
"fixation-image-keyboard-release-original","14705","711084","0.0-23.0-1.97","","617.3450000060257","Stim/Stim-BG/MN_M.PNG","66","","","1","exp","100","2","1","C","b","true"
"fixation-image-keyboard-release-original","14706","713634","0.0-23.0-1.98","","537.8100000089034","Stim/Stim-BG/MM_I.PNG","86","","","2","exp","100","2","0","IC","v","true"
"fixation-image-keyboard-release-original","14707","716226","0.0-23.0-1.99","","583.5599999991246","Stim/Stim-BG/NM_I.PNG","86","","","1","exp","700","2","0","IC","v","true"
"fixation-image-keyboard-release-original","14708","718810","0.0-23.0-1.100","","557.7949999715202","Stim/Stim-GB/MM_M.PNG","66","","","2","exp","100","2","1","C","b","true"
"fixation-image-keyboard-release-original","14709","721461","0.0-23.0-1.101","","644.0549999824725","Stim/Stim-BG/II_M.PNG","66","","","2","exp","100","1","1","IC","b","true"
"fixation-image-keyboard-release-original","14710","724098","0.0-23.0-1.102","","615.4499999829568","Stim/Stim-BG/MN_M.PNG","66","","","1","exp","400","2","1","C","b","true"
"fixation-image-keyboard-release-original","14711","726790","0.0-23.0-1.103","","683.8500000012573","Stim/Stim-BG/IN_I.PNG","86","","","1","exp","700","1","0","C","v","true"
"fixation-image-keyboard-release-original","14712","729268","0.0-23.0-1.104","","469.03999999631196","Stim/Stim-GB/MM_M.PNG","66","","","2","exp","100","2","1","C","b","true"
"fixation-image-keyboard-release-original","14713","731826","0.0-23.0-1.105","","542.7700000000186","Stim/Stim-GB/MM_M.PNG","66","","","2","exp","400","2","1","C","b","true"
"fixation-image-keyboard-release-original","14714","734341","0.0-23.0-1.106","","485.3949999960605","Stim/Stim-BG/IN_I.PNG","86","","","1","exp","400","1","0","C","v","true"
"fixation-image-keyboard-release-original","14715","736818","0.0-23.0-1.107","","469.63499998673797","Stim/Stim-BG/NM_M.PNG","66","","","1","exp","100","2","1","C","b","true"
"fixation-image-keyboard-release-original","14716","739375","0.0-23.0-1.108","","537.9599999869242","Stim/Stim-BG/MN_I.PNG","86","","","1","exp","400","2","0","IC","v","true"
"fixation-image-keyboard-release-original","14717","741865","0.0-23.0-1.109","","467.3249999759719","Stim/Stim-BG/NI_M.PNG","66","","","1","exp","700","1","1","IC","b","true"
"fixation-image-keyboard-release-original","14718","744341","0.0-23.0-1.110","","460.64500001375563","Stim/Stim-BG/MN_I.PNG","86","","","1","exp","100","2","0","IC","v","true"
"fixation-image-keyboard-release-original","14719","746853","0.0-23.0-1.111","","493.36500000208616","Stim/Stim-GB/MM_I.PNG","86","","","2","exp","700","2","0","IC","v","true"
"fixation-image-keyboard-release-original","14720","749379","0.0-23.0-1.112","","502.5500000047032","Stim/Stim-GB/NI_I.PNG","86","","","1","exp","100","1","0","C","v","true"
"fixation-image-keyboard-release-original","14721","751825","0.0-23.0-1.113","","432.01499999850057","Stim/Stim-GB/MM_I.PNG","86","","","2","exp","400","2","0","IC","v","true"
"fixation-image-keyboard-release-original","14722","754315","0.0-23.0-1.114","","473.375000001397","Stim/Stim-GB/NI_M.PNG","66","","","1","exp","400","1","1","IC","b","true"
"fixation-image-keyboard-release-original","14723","757126","0.0-23.0-1.115","","795.9650000266265","Stim/Stim-GB/IN_M.PNG","66","","","1","exp","700","1","1","IC","b","true"
"fixation-image-keyboard-release-original","14724","759653","0.0-23.0-1.116","","508.74000001931563","Stim/Stim-BG/NI_M.PNG","66","","","1","exp","700","1","1","IC","b","true"
"fixation-image-keyboard-release-original","14725","762291","0.0-23.0-1.117","","627.5399999867659","Stim/Stim-GB/IN_M.PNG","66","","","1","exp","100","1","1","IC","b","true"
"fixation-image-keyboard-release-original","14726","764720","0.0-23.0-1.118","","415.9149999904912","Stim/Stim-BG/MM_I.PNG","86","","","2","exp","400","2","0","IC","v","true"
"fixation-image-keyboard-release-original","14727","767366","0.0-23.0-1.119","","637.5349999871105","Stim/Stim-BG/NM_I.PNG","86","","","1","exp","700","2","0","IC","v","true"
"fixation-image-keyboard-release-original","14728","769938","0.0-23.0-1.120","","554.2900000000373","Stim/Stim-BG/II_I.PNG","86","","","2","exp","400","1","0","C","v","true"
"fixation-image-keyboard-release-original","14729","772386","0.0-23.0-1.121","","438.1549999816343","Stim/Stim-GB/II_I.PNG","86","","","2","exp","100","1","0","C","v","true"
"fixation-image-keyboard-release-original","14730","774912","0.0-23.0-1.122","","496.6499999864027","Stim/Stim-BG/NM_M.PNG","66","","","1","exp","100","2","1","C","b","true"
"fixation-image-keyboard-release-original","14731","777531","0.0-23.0-1.123","","599.6550000272691","Stim/Stim-BG/IN_M.PNG","66","","","1","exp","400","1","1","IC","b","true"
"fixation-image-keyboard-release-original","14732","780193","0.0-23.0-1.124","","647.6299999922048","Stim/Stim-BG/NM_M.PNG","66","","","1","exp","700","2","1","C","b","true"
"fixation-image-keyboard-release-original","14733","782573","0.0-23.0-1.125","","372.45999998413026","Stim/Stim-BG/MN_I.PNG","86","","","1","exp","400","2","0","IC","v","true"
"fixation-image-keyboard-release-original","14734","785134","0.0-23.0-1.126","","546.8549999932293","Stim/Stim-GB/MN_I.PNG","86","","","1","exp","400","2","0","IC","v","true"
"fixation-image-keyboard-release-original","14735","787714","0.0-23.0-1.127","","564.4749999919441","Stim/Stim-BG/MM_I.PNG","86","","","2","exp","700","2","0","IC","v","true"
"fixation-image-keyboard-release-original","14736","790145","0.0-23.0-1.128","","418.0900000210386","Stim/Stim-GB/NI_M.PNG","66","","","1","exp","100","1","1","IC","b","true"
"fixation-image-keyboard-release-original","14737","792683","0.0-23.0-1.129","","530.849999981001","Stim/Stim-BG/NI_I.PNG","86","","","1","exp","700","1","0","C","v","true"
"fixation-image-keyboard-release-original","14738","795291","0.0-23.0-1.130","","583.0900000000838","Stim/Stim-BG/IN_M.PNG","66","","","1","exp","700","1","1","IC","b","true"
"fixation-image-keyboard-release-original","14739","798059","0.0-23.0-1.131","","744.3250000069384","Stim/Stim-BG/NI_I.PNG","86","","","1","exp","400","1","0","C","v","true"
"fixation-image-keyboard-release-original","15045","820835","0.0-23.0-1.132","","1693.7850000103936","Stim/Stim-GB/II_M.PNG","66","","","2","exp","100","1","1","IC","b","true"
"fixation-image-keyboard-release-original","15046","823299","0.0-23.0-1.133","","444.20999998692423","Stim/Stim-GB/NI_I.PNG","86","","","1","exp","700","1","0","C","v","true"
"fixation-image-keyboard-release-original","15047","825852","0.0-23.0-1.134","","542.7700000000186","Stim/Stim-BG/MM_M.PNG","66","","","2","exp","400","2","1","C","b","true"
"fixation-image-keyboard-release-original","15048","828430","0.0-23.0-1.135","","557.6949999958742","Stim/Stim-GB/MN_M.PNG","66","","","1","exp","700","2","1","C","b","true"
"fixation-image-keyboard-release-original","15049","830939","0.0-23.0-1.136","","494.1699999908451","Stim/Stim-BG/MM_I.PNG","86","","","2","exp","700","2","0","IC","v","true"
"fixation-image-keyboard-release-original","15050","833466","0.0-23.0-1.137","","508.15000000875443","Stim/Stim-BG/NM_M.PNG","66","","","1","exp","400","2","1","C","b","true"
"fixation-image-keyboard-release-original","15051","835992","0.0-23.0-1.138","","507.65000001410954","Stim/Stim-BG/II_M.PNG","66","","","2","exp","100","1","1","IC","b","true"
"fixation-image-keyboard-release-original","15052","838563","0.0-23.0-1.139","","556.6550000221469","Stim/Stim-GB/NM_M.PNG","66","","","1","exp","700","2","1","C","b","true"
"fixation-image-keyboard-release-original","15053","841117","0.0-23.0-1.140","","546.7199999839067","Stim/Stim-GB/II_M.PNG","66","","","2","exp","100","1","1","IC","b","true"
"fixation-image-keyboard-release-original","15054","843597","0.0-23.0-1.141","","474.3200000084471","Stim/Stim-GB/IN_I.PNG","86","","","1","exp","700","1","0","C","v","true"
"fixation-image-keyboard-release-original","15055","846105","0.0-23.0-1.142","","493.6100000049919","Stim/Stim-BG/II_M.PNG","66","","","2","exp","400","1","1","IC","b","true"
"fixation-image-keyboard-release-original","15056","848540","0.0-23.0-1.143","","409.83999997843057","Stim/Stim-GB/MN_I.PNG","86","","","1","exp","100","2","0","IC","v","true"
"html-keyboard-response","15057","1826062","0.0-23.0-2.143-0.143","","976472.4500000011","Take a break. Feel free to start again by pressing Enter.","13","","","","","","","","","",""
"fixation-image-keyboard-release-original","15138","1828302","0.0-23.0-1.144","","829.7349999775179","Stim/Stim-BG/IN_M.PNG","66","","","1","exp","700","1","1","IC","b","true"
"fixation-image-keyboard-release-original","15139","1830946","0.0-23.0-1.145","","620.0449999887496","Stim/Stim-GB/MN_M.PNG","66","","","1","exp","100","2","1","C","b","true"
"fixation-image-keyboard-release-original","15140","1833571","0.0-23.0-1.146","","603.4449999860954","Stim/Stim-GB/NM_I.PNG","86","","","1","exp","400","2","0","IC","v","true"
"fixation-image-keyboard-release-original","15141","1836031","0.0-23.0-1.147","","444.21499999589287","Stim/Stim-GB/NI_M.PNG","66","","","1","exp","100","1","1","IC","b","true"
"fixation-image-keyboard-release-original","15142","1838495","0.0-23.0-1.148","","451.52499998221174","Stim/Stim-GB/MN_I.PNG","86","","","1","exp","700","2","0","IC","v","true"
"fixation-image-keyboard-release-original","15143","1841052","0.0-23.0-1.149","","548.7199999915902","Stim/Stim-BG/II_I.PNG","86","","","2","exp","100","1","0","C","v","true"
"fixation-image-keyboard-release-original","15144","1843610","0.0-23.0-1.150","","540.9299999882933","Stim/Stim-GB/MN_I.PNG","86","","","1","exp","100","2","0","IC","v","true"
"fixation-image-keyboard-release-original","15145","1846154","0.0-23.0-1.151","","522.9899999976624","Stim/Stim-GB/MM_I.PNG","86","","","2","exp","100","2","0","IC","v","true"
"fixation-image-keyboard-release-original","15146","1848572","0.0-23.0-1.152","","401.52499999385327","Stim/Stim-BG/MM_I.PNG","86","","","2","exp","400","2","0","IC","v","true"
"fixation-image-keyboard-release-original","15147","1851226","0.0-23.0-1.153","","647.2850000136532","Stim/Stim-GB/NM_I.PNG","86","","","1","exp","700","2","0","IC","v","true"
"fixation-image-keyboard-release-original","15148","1853682","0.0-23.0-1.154","","444.1250000090804","Stim/Stim-BG/MM_M.PNG","66","","","2","exp","700","2","1","C","b","true"
"fixation-image-keyboard-release-original","15149","1856195","0.0-23.0-1.155","","495.519999996759","Stim/Stim-GB/MM_I.PNG","86","","","2","exp","100","2","0","IC","v","true"
"fixation-image-keyboard-release-original","15150","1858724","0.0-23.0-1.156","","507.58000000496395","Stim/Stim-GB/II_I.PNG","86","","","2","exp","400","1","0","C","v","true"
"fixation-image-keyboard-release-original","15151","1861282","0.0-23.0-1.157","","537.255000002915","Stim/Stim-GB/NI_M.PNG","66","","","1","exp","700","1","1","IC","b","true"
"fixation-image-keyboard-release-original","15152","1863814","0.0-23.0-1.158","","524.9799999874085","Stim/Stim-GB/NM_I.PNG","86","","","1","exp","100","2","0","IC","v","true"
"fixation-image-keyboard-release-original","15153","1866476","0.0-23.0-1.159","","643.5099999944214","Stim/Stim-GB/MN_M.PNG","66","","","1","exp","100","2","1","C","b","true"
"fixation-image-keyboard-release-original","15154","1869005","0.0-23.0-1.160","","513.7649999815039","Stim/Stim-GB/MM_M.PNG","66","","","2","exp","400","2","1","C","b","true"
"fixation-image-keyboard-release-original","15155","1871641","0.0-23.0-1.161","","625.0749999890104","Stim/Stim-GB/II_M.PNG","66","","","2","exp","400","1","1","IC","b","true"
"fixation-image-keyboard-release-original","15156","1874183","0.0-23.0-1.162","","535.4249999800231","Stim/Stim-BG/MM_I.PNG","86","","","2","exp","100","2","0","IC","v","true"
"fixation-image-keyboard-release-original","15157","1876746","0.0-23.0-1.163","","533.4499999880791","Stim/Stim-BG/MN_M.PNG","66","","","1","exp","400","2","1","C","b","true"
"fixation-image-keyboard-release-original","15158","1879288","0.0-23.0-1.164","","525.549999991199","Stim/Stim-GB/II_I.PNG","86","","","2","exp","100","1","0","C","v","true"
"fixation-image-keyboard-release-original","15159","1881846","0.0-23.0-1.165","","550.4599999985658","Stim/Stim-GB/NI_I.PNG","86","","","1","exp","400","1","0","C","v","true"
"fixation-image-keyboard-release-original","15160","1884281","0.0-23.0-1.166","","423.4050000086427","Stim/Stim-BG/IN_I.PNG","86","","","1","exp","400","1","0","C","v","true"
"fixation-image-keyboard-release-original","15161","1886795","0.0-23.0-1.167","","496.67999998200685","Stim/Stim-GB/II_M.PNG","66","","","2","exp","400","1","1","IC","b","true"
"fixation-image-keyboard-release-original","15162","1889283","0.0-23.0-1.168","","475.7800000079442","Stim/Stim-BG/MM_M.PNG","66","","","2","exp","100","2","1","C","b","true"
"fixation-image-keyboard-release-original","15163","1891901","0.0-23.0-1.169","","590.6099999847356","Stim/Stim-BG/II_I.PNG","86","","","2","exp","700","1","0","C","v","true"
"fixation-image-keyboard-release-original","15164","1894347","0.0-23.0-1.170","","436.1499999940861","Stim/Stim-GB/MM_M.PNG","66","","","2","exp","400","2","1","C","b","true"
"fixation-image-keyboard-release-original","15165","1896791","0.0-23.0-1.171","","430.465000012191","Stim/Stim-BG/MN_I.PNG","86","","","1","exp","700","2","0","IC","v","true"
"fixation-image-keyboard-release-original","15166","1899183","0.0-23.0-1.172","","367.98999999882653","Stim/Stim-GB/NI_M.PNG","66","","","1","exp","400","1","1","IC","b","true"
"fixation-image-keyboard-release-original","15167","1901537","0.0-23.0-1.173","","340.83499998087063","Stim/Stim-GB/MM_I.PNG","86","","","2","exp","700","2","0","IC","v","true"
"fixation-image-keyboard-release-original","15168","1904121","0.0-23.0-1.174","","566.6349999955855","Stim/Stim-GB/II_I.PNG","86","","","2","exp","700","1","0","C","v","true"
"fixation-image-keyboard-release-original","15169","1906793","0.0-23.0-1.175","","656.7099999811035","Stim/Stim-BG/MN_M.PNG","66","","","1","exp","700","2","1","C","b","true"
"fixation-image-keyboard-release-original","15170","1909291","0.0-23.0-1.176","","488.43999998643994","Stim/Stim-BG/MM_M.PNG","66","","","2","exp","400","2","1","C","b","true"
"fixation-image-keyboard-release-original","15171","1911747","0.0-23.0-1.177","","426.1699999915436","Stim/Stim-GB/IN_I.PNG","86","","","1","exp","100","1","0","C","v","true"
"fixation-image-keyboard-release-original","15172","1914094","0.0-23.0-1.178","","328.4550000098534","Stim/Stim-BG/NI_M.PNG","66","","","1","exp","400","1","1","IC","b","true"
"fixation-image-keyboard-release-original","15173","1916432","0.0-23.0-1.179","","331.37500000884756","Stim/Stim-BG/MM_I.PNG","86","","","2","exp","100","2","0","IC","v","true"
"fixation-image-keyboard-release-original","15174","1918919","0.0-23.0-1.180","","481.46499998983927","Stim/Stim-BG/IN_I.PNG","86","","","1","exp","700","1","0","C","v","true"
"fixation-image-keyboard-release-original","15175","1921448","0.0-23.0-1.181","","522.1650000021327","Stim/Stim-GB/II_I.PNG","86","","","2","exp","400","1","0","C","v","true"
"fixation-image-keyboard-release-original","15176","1923941","0.0-23.0-1.182","","472.604999988107","Stim/Stim-BG/II_I.PNG","86","","","2","exp","400","1","0","C","v","true"
"fixation-image-keyboard-release-original","15177","1926775","0.0-23.0-1.183","","817.045000003418","Stim/Stim-BG/MN_M.PNG","66","","","1","exp","700","2","1","C","b","true"
"fixation-image-keyboard-release-original","15178","1929398","0.0-23.0-1.184","","607.4900000239722","Stim/Stim-GB/MM_M.PNG","66","","","2","exp","100","2","1","C","b","true"
"fixation-image-keyboard-release-original","15179","1931949","0.0-23.0-1.185","","530.5450000159908","Stim/Stim-BG/II_M.PNG","66","","","2","exp","700","1","1","IC","b","true"
"fixation-image-keyboard-release-original","15180","1934380","0.0-23.0-1.186","","422.40000001038425","Stim/Stim-BG/MN_I.PNG","86","","","1","exp","700","2","0","IC","v","true"
"fixation-image-keyboard-release-original","15181","1936933","0.0-23.0-1.187","","529.964999994263","Stim/Stim-BG/NM_I.PNG","86","","","1","exp","400","2","0","IC","v","true"
"fixation-image-keyboard-release-original","15182","1939413","0.0-23.0-1.188","","465.6900000118185","Stim/Stim-BG/NI_I.PNG","66","","","1","exp","100","1","0","C","v","false"
"fixation-image-keyboard-release-original","15183","1942083","0.0-23.0-1.189","","655.6749999872409","Stim/Stim-BG/NM_I.PNG","86","","","1","exp","400","2","0","IC","v","true"
"fixation-image-keyboard-release-original","15184","1944605","0.0-23.0-1.190","","505.48500000149943","Stim/Stim-BG/MM_M.PNG","66","","","2","exp","700","2","1","C","b","true"
"fixation-image-keyboard-release-original","15185","1947012","0.0-23.0-1.191","","386.15000000572763","Stim/Stim-BG/II_I.PNG","86","","","2","exp","400","1","0","C","v","true"
"call-function","15186","1948026","0.0-24.0","","","","","","","","","","","","","",""
"survey-html-form","15187","1955243","0.0-25.0","","7216.769999999087","","","{""hands2"":""Right""}","","","","","","","","",""
"html-keyboard-response","15188","1964107","0.0-26.0","","8863.034999987576","<p><h1>This is the end of the experiment.</h1></p><p>Please <a href='Debrief.pdf' target='_blank'>Click Here</a> (this will open a new window) to read more about the study.</p><p>Press ENTER to end the experiment (you will be sent to Prolific - if something goes wrong, the completion code for this study is: 3F11CBBF).</p>","13","","","","","","","","","",""
"pavlovia","15189","1964115","0.0-27.0","","","","","","","","","","","","","",""
