"trial_type","trial_index","time_elapsed","internal_node_id","value","rt","stimulus","key_press","responses","success","hand","test","gap","finger","cue","con","correct_response","correct"
"pavlovia","0","5","0.0-0.0","","","","","","","","","","","","","",""
"call-function","1","5","0.0-1.0","","","","","","","","","","","","","",""
"html-keyboard-response","2","7899","0.0-2.0","","7892.819999950007","<div class = 'my_window'><p><h1>Welcome!</h1><br><p><p>This experiment is adminterested by Carl Michael Galang (McMaster University), Dr. Emiel Cracco (Ghent University), Dr. Marcel Brass (Humboldt University of Berlin), & Dr. Sukhvinder Obhi (McMaster University).</p><p>The purpose of this study is to explore basic perceptual processing mechanisms.</p><p>Information gathered during this study will be written up for publication in an academic journal. While there are no direct benefits to you taking part in this study (other than learning more about the research topic and getting paid on Prolific), the results of this study will provide us with a better understanding of perceptual and sensory processes. To learn about this study, particularly in the terms of any associated risks or harms, how confidentiality and anonymity will be handled, withdrawal procedures, incentives that are promised, how to obtain information about the results, etc., please read the accompanying letter of information - <a href='LOI.pdf' target='_blank'>Click Here</a> (this will open a new window).</p><p>This study should take around 10min to complete.</p><p>If you have questions or need more information about the study itself, please contact me at: galangc@mcmaster.ca. This study has been reviewed by the McMaster University Research Ethics Board and received ethics clearance. If you have concerns or questions about your rights as a participant or about the way the study is conducted, please contact the McMaster Research Ethics Secretariat at ethicsoffice@mcmaster.ca.</p><br><p><h1>CONSENT</h1></p><p>I have read the information presented in the letter of information and I agree to participate in this study.</p><p>By pressing Enter, I consent to the above.<p>","13","","","","","","","","","",""
"survey-html-form","3","19928","0.0-3.0","","12027.54499996081","","","{""1"":""5d30dfa68b1523000134878f""}","","","","","","","","",""
"fullscreen","4","22465","0.0-4.0","","","","","","true","","","","","","","",""
"call-function","5","22466","0.0-5.0","","","","","","","","","","","","","",""
"html-keyboard-response","6","49995","0.0-6.0","","27528.110000072047","<div class = 'my_window'><h1>Instructions</h1><p>Your task in this experiment is to respond to the letters I or M as they appear on the screen. Unlike most experiments, your task will be to <strong><u>release</u></strong> keys (not push).</p><p>Before each trial starts, please ensure that you keep the <strong><u>V key</u></strong> and <strong><u>B key</u></strong> depressed with your <strong><u>right index finger</u></strong> on the <strong><u>V key</u></strong> and your <strong><u>right middle finger</u></strong> on the <strong><u>B key</u></strong> (see image below). Responses on this experiment will consist of lifting your <strong><u>right index finger</u></strong> to release the <strong><u>V key</u></strong> if you see the letter <strong><u>I</u></strong> or lifting your <strong><u>right middle finger</u></strong> to release the <strong><u>B key</u></strong> if you see the letter <strong><u>M</u></strong> as fast as you can. It is important that you <strong><u>only use your right hand</u></strong> to do the task.</p><p><img src='keyboard_img.png'></p><p>While you complete this task, there will be a couple of hands moving in the background. Ignore them and focus on the task.</p><p>Press ENTER to continue.</p></div>","13","","","","","","","","","",""
"html-keyboard-response","7","104129","0.0-7.0","","54132.26500002202","<div class = 'my_window'><h1>Practice</h1><p>You will first do a practice phase. In the practice phase, you will get feedback on your performance. The practice phase contains 10 trials, but will add an extra trial every time you respond incorrectly.</p><p><p>Before each trial starts, please ensure that you keep the <strong><u>V key</u></strong> and <strong><u>B key</u></strong> depressed with your <strong><u>right index finger</u></strong> on the <strong><u>V key</u></strong> and your <strong><u>right middle finger</u></strong> on the <strong><u>B key</u></strong> (see image below). Responses on this experiment will consist of lifting your <strong><u>right index finger</u></strong> to release the <strong><u>V key</u></strong> if you see the letter <strong><u>I</u></strong> or lifting your <strong><u>right middle finger</u></strong> to release the <strong><u>B key</u></strong> if you see the letter <strong><u>M</u></strong> as fast as you can. It is important that you <strong><u>only use your right hand</u></strong> to do the task.</p><p><img src='keyboard_img.png'></p><p>While you complete this task, there will be a couple of hands moving in the background. Ignore them and focus on the task.</p><p>This is a reaction time experiment, so please try to respond as fast as possible while at the same time minimizing mistakes.</p><p>Press ENTER to begin.</p></div>","13","","","","","","","","","",""
"fixation-image-keyboard-release-original","494","108122","0.0-8.0-1.0","","523.164999904111","Stim/Stim-BG/NI_I.PNG","86","","","1","exp","400","1","0","C","v","true"
"html-keyboard-response","495","109225","0.0-8.0-2.0","","null","<p> CORRECT </p>","null","","","","","","","","","",""
"fixation-image-keyboard-release-original","496","110695","0.0-9.0-1.0","","467.73499995470047","Stim/Stim-GB/MM_I.PNG","86","","","2","exp","100","2","0","IC","v","true"
"html-keyboard-response","497","111797","0.0-9.0-2.0","","null","<p> CORRECT </p>","null","","","","","","","","","",""
"fixation-image-keyboard-release-original","498","113123","0.0-10.0-1.0","","322.93000002391636","Stim/Stim-GB/NI_M.PNG","66","","","1","exp","100","1","1","IC","b","true"
"html-keyboard-response","499","114225","0.0-10.0-2.0","","null","<p> CORRECT </p>","null","","","","","","","","","",""
"fixation-image-keyboard-release-original","500","115629","0.0-11.0-1.0","","401.5500000678003","Stim/Stim-BG/MM_I.PNG","86","","","2","exp","400","2","0","IC","v","true"
"html-keyboard-response","501","116732","0.0-11.0-2.0","","null","<p> CORRECT </p>","null","","","","","","","","","",""
"fixation-image-keyboard-release-original","502","118226","0.0-12.0-1.0","","493.055000086315","Stim/Stim-GB/II_I.PNG","86","","","2","exp","400","1","0","C","v","true"
"html-keyboard-response","503","119329","0.0-12.0-2.0","","null","<p> CORRECT </p>","null","","","","","","","","","",""
"fixation-image-keyboard-release-original","504","120759","0.0-13.0-1.0","","428.4149999730289","Stim/Stim-BG/II_M.PNG","86","","","2","exp","400","1","1","IC","b","false"
"html-keyboard-response","505","121861","0.0-13.0-2.0","","null","<p> INCORRECT </p>","null","","","","","","","","","",""
"fixation-image-keyboard-release-original","506","123306","0.0-13.1-1.1","","442.66000005882233","Stim/Stim-GB/MM_M.PNG","66","","","2","exp","700","2","1","C","b","true"
"html-keyboard-response","507","124407","0.0-13.1-2.1","","null","<p> CORRECT </p>","null","","","","","","","","","",""
"fixation-image-keyboard-release-original","508","126004","0.0-14.0-1.0","","594.0150000387803","Stim/Stim-GB/II_I.PNG","86","","","2","exp","700","1","0","C","v","true"
"html-keyboard-response","509","127106","0.0-14.0-2.0","","null","<p> CORRECT </p>","null","","","","","","","","","",""
"fixation-image-keyboard-release-original","510","128512","0.0-15.0-1.0","","403.1200000317767","Stim/Stim-GB/MM_M.PNG","66","","","2","exp","100","2","1","C","b","true"
"html-keyboard-response","511","129613","0.0-15.0-2.0","","null","<p> CORRECT </p>","null","","","","","","","","","",""
"fixation-image-keyboard-release-original","512","130955","0.0-16.0-1.0","","339.380000019446","Stim/Stim-BG/II_I.PNG","86","","","2","exp","700","1","0","C","v","true"
"html-keyboard-response","513","132057","0.0-16.0-2.0","","null","<p> CORRECT </p>","null","","","","","","","","","",""
"fixation-image-keyboard-release-original","514","133526","0.0-17.0-1.0","","467.73999999277294","Stim/Stim-GB/MM_M.PNG","66","","","2","exp","400","2","1","C","b","true"
"html-keyboard-response","515","134629","0.0-17.0-2.0","","null","<p> CORRECT </p>","null","","","","","","","","","",""
"call-function","516","134630","0.0-18.0","","","","","","","","","","","","","",""
"survey-html-form","517","139422","0.0-19.0","","4791.500000050291","","","{""hands"":""Right""}","","","","","","","","",""
"html-keyboard-response","518","143221","0.0-20.0","","3797.610000008717","If you are using <strong><u>just</u></strong> your <strong></u>right hand</u></strong>, then good job! If not, please do so in the main part of the experiment.<br><br>Press Enter to continue","13","","","","","","","","","",""
"html-keyboard-response","519","144374","0.0-21.0","","1152.574999956414","<div class = 'my_window'><h1>Main Trials</h1><p>Good Job! We will now begin the main trials. In the main trials, you will <strong>not</strong> get feedback. There are 192 trials overall. You will get a self-paced break every 48 trials.</p><p>Instructions Reminder: <p>Before each trial starts, please ensure that you keep the <strong><u>V key</u></strong> and <strong><u>B key</u></strong> depressed with your <strong><u>right index finger</u></strong> on the <strong><u>V key</u></strong> and your <strong><u>right middle finger</u></strong> on the <strong><u>B key</u></strong> (see image below). Responses on this experiment will consist of lifting your <strong><u>right index finger</u></strong> to release the <strong><u>V key</u></strong> if you see the letter <strong><u>I</u></strong> or lifting your <strong><u>right middle finger</u></strong> to release the <strong><u>B key</u></strong> if you see the letter <strong><u>M</u></strong> as fast as you can. It is important that you <strong><u>only use your right hand</u></strong> to do the task.</p><p><img src='keyboard_img.png'></p><p>While you complete this task, there will be a couple of hands moving in the background. Ignore them and focus on the task.</p><p>Remember: this is a reaction time experiment, so please try to respond as fast as possible while at the same time minimizing mistakes.</p><p>Press ENTER to begin.</p></div>","13","","","","","","","","","",""
"call-function","520","144374","0.0-22.0","","","","","","","","","","","","","",""
"fixation-image-keyboard-release-original","1320","149868","0.0-23.0-1.0","","478.81000000052154","Stim/Stim-GB/MN_M.PNG","66","","","1","exp","100","2","1","C","b","true"
"fixation-image-keyboard-release-original","1321","152312","0.0-23.0-1.1","","440.88000000920147","Stim/Stim-GB/MM_I.PNG","86","","","2","exp","400","2","0","IC","v","true"
"fixation-image-keyboard-release-original","1322","154866","0.0-23.0-1.2","","549.7899999609217","Stim/Stim-GB/NM_I.PNG","86","","","1","exp","700","2","0","IC","v","true"
"fixation-image-keyboard-release-original","1323","157300","0.0-23.0-1.3","","431.84500001370907","Stim/Stim-BG/NI_I.PNG","86","","","1","exp","400","1","0","C","v","true"
"fixation-image-keyboard-release-original","1324","159630","0.0-23.0-1.4","","325.3600000170991","Stim/Stim-BG/II_M.PNG","66","","","2","exp","100","1","1","IC","b","true"
"fixation-image-keyboard-release-original","1325","162052","0.0-23.0-1.5","","419.2350000375882","Stim/Stim-GB/II_M.PNG","66","","","2","exp","400","1","1","IC","b","true"
"fixation-image-keyboard-release-original","1326","164500","0.0-23.0-1.6","","444.9949999107048","Stim/Stim-GB/MM_M.PNG","66","","","2","exp","700","2","1","C","b","true"
"fixation-image-keyboard-release-original","1327","166964","0.0-23.0-1.7","","459.8399999085814","Stim/Stim-BG/NI_I.PNG","86","","","1","exp","700","1","0","C","v","true"
"fixation-image-keyboard-release-original","1328","169349","0.0-23.0-1.8","","382.3750000447035","Stim/Stim-BG/II_M.PNG","66","","","2","exp","100","1","1","IC","b","true"
"fixation-image-keyboard-release-original","1329","171867","0.0-23.0-1.9","","515.5200000153854","Stim/Stim-BG/MM_M.PNG","66","","","2","exp","100","2","1","C","b","true"
"fixation-image-keyboard-release-original","1330","174240","0.0-23.0-1.10","","368.5350000159815","Stim/Stim-BG/NI_M.PNG","66","","","1","exp","700","1","1","IC","b","true"
"fixation-image-keyboard-release-original","1331","176715","0.0-23.0-1.11","","473.11500005889684","Stim/Stim-BG/II_M.PNG","66","","","2","exp","700","1","1","IC","b","true"
"fixation-image-keyboard-release-original","1332","179079","0.0-23.0-1.12","","361.70000000856817","Stim/Stim-BG/MN_I.PNG","86","","","1","exp","700","2","0","IC","v","true"
"fixation-image-keyboard-release-original","1333","181548","0.0-23.0-1.13","","464.5449999952689","Stim/Stim-GB/MN_I.PNG","86","","","1","exp","700","2","0","IC","v","true"
"fixation-image-keyboard-release-original","1334","183954","0.0-23.0-1.14","","402.14499994181097","Stim/Stim-GB/IN_I.PNG","86","","","1","exp","700","1","0","C","v","true"
"fixation-image-keyboard-release-original","1335","186344","0.0-23.0-1.15","","387.3250000178814","Stim/Stim-GB/MM_M.PNG","66","","","2","exp","400","2","1","C","b","true"
"fixation-image-keyboard-release-original","1336","188813","0.0-23.0-1.16","","466.68499999213964","Stim/Stim-BG/NI_M.PNG","66","","","1","exp","400","1","1","IC","b","true"
"fixation-image-keyboard-release-original","1337","191379","0.0-23.0-1.17","","563.3950000628829","Stim/Stim-GB/IN_M.PNG","66","","","1","exp","400","1","1","IC","b","true"
"fixation-image-keyboard-release-original","1338","193685","0.0-23.0-1.18","","304.219999932684","Stim/Stim-BG/MM_M.PNG","66","","","2","exp","700","2","1","C","b","true"
"fixation-image-keyboard-release-original","1339","195988","0.0-23.0-1.19","","299.75999996531755","Stim/Stim-BG/NM_M.PNG","66","","","1","exp","100","2","1","C","b","true"
"fixation-image-keyboard-release-original","1340","198410","0.0-23.0-1.20","","419.3549999035895","Stim/Stim-GB/II_I.PNG","86","","","2","exp","100","1","0","C","v","true"
"fixation-image-keyboard-release-original","1341","200778","0.0-23.0-1.21","","365.7450000755489","Stim/Stim-BG/IN_I.PNG","86","","","1","exp","100","1","0","C","v","true"
"fixation-image-keyboard-release-original","1342","203168","0.0-23.0-1.22","","385.6249999953434","Stim/Stim-GB/II_I.PNG","86","","","2","exp","400","1","0","C","v","true"
"fixation-image-keyboard-release-original","1343","205575","0.0-23.0-1.23","","403.08000007644296","Stim/Stim-BG/NM_I.PNG","86","","","1","exp","400","2","0","IC","v","true"
"fixation-image-keyboard-release-original","1344","208007","0.0-23.0-1.24","","429.51499996706843","Stim/Stim-GB/MM_I.PNG","86","","","2","exp","100","2","0","IC","v","true"
"fixation-image-keyboard-release-original","1345","210381","0.0-23.0-1.25","","370.36500009708107","Stim/Stim-BG/MN_I.PNG","86","","","1","exp","400","2","0","IC","v","true"
"fixation-image-keyboard-release-original","1346","212754","0.0-23.0-1.26","","368.8950000796467","Stim/Stim-BG/IN_M.PNG","66","","","1","exp","100","1","1","IC","b","true"
"fixation-image-keyboard-release-original","1347","215160","0.0-23.0-1.27","","402.91499998420477","Stim/Stim-BG/II_I.PNG","86","","","2","exp","700","1","0","C","v","true"
"fixation-image-keyboard-release-original","1348","217582","0.0-23.0-1.28","","419.7300000814721","Stim/Stim-BG/NM_M.PNG","66","","","1","exp","700","2","1","C","b","true"
"fixation-image-keyboard-release-original","1349","219945","0.0-23.0-1.29","","360.080000013113","Stim/Stim-BG/II_I.PNG","86","","","2","exp","700","1","0","C","v","true"
"fixation-image-keyboard-release-original","1350","222303","0.0-23.0-1.30","","353.8049999624491","Stim/Stim-GB/MM_I.PNG","86","","","2","exp","400","2","0","IC","v","true"
"fixation-image-keyboard-release-original","1351","224729","0.0-23.0-1.31","","424.9149999814108","Stim/Stim-GB/II_M.PNG","66","","","2","exp","100","1","1","IC","b","true"
"fixation-image-keyboard-release-original","1701","229018","0.0-23.0-1.32","","508.72000004164875","Stim/Stim-GB/IN_M.PNG","66","","","1","exp","700","1","1","IC","b","true"
"fixation-image-keyboard-release-original","1702","231397","0.0-23.0-1.33","","376.88999995589256","Stim/Stim-BG/IN_I.PNG","86","","","1","exp","700","1","0","C","v","true"
"fixation-image-keyboard-release-original","1703","233830","0.0-23.0-1.34","","429.63499994948506","Stim/Stim-GB/II_I.PNG","86","","","2","exp","100","1","0","C","v","true"
"fixation-image-keyboard-release-original","1704","236234","0.0-23.0-1.35","","402.0899999886751","Stim/Stim-GB/MM_M.PNG","66","","","2","exp","100","2","1","C","b","true"
"fixation-image-keyboard-release-original","1705","238717","0.0-23.0-1.36","","480.00000009778887","Stim/Stim-GB/II_M.PNG","66","","","2","exp","100","1","1","IC","b","true"
"fixation-image-keyboard-release-original","1706","241086","0.0-23.0-1.37","","367.0299999648705","Stim/Stim-GB/MN_I.PNG","86","","","1","exp","100","2","0","IC","v","true"
"fixation-image-keyboard-release-original","1707","243454","0.0-23.0-1.38","","364.3649999285117","Stim/Stim-GB/NI_I.PNG","86","","","1","exp","100","1","0","C","v","true"
"fixation-image-keyboard-release-original","1708","245770","0.0-23.0-1.39","","312.3750000959262","Stim/Stim-BG/MM_I.PNG","86","","","2","exp","100","2","0","IC","v","true"
"fixation-image-keyboard-release-original","1709","248191","0.0-23.0-1.40","","418.99999999441206","Stim/Stim-BG/II_M.PNG","66","","","2","exp","400","1","1","IC","b","true"
"fixation-image-keyboard-release-original","1710","250603","0.0-23.0-1.41","","409.5249999081716","Stim/Stim-BG/MM_I.PNG","86","","","2","exp","400","2","0","IC","v","true"
"fixation-image-keyboard-release-original","1711","252974","0.0-23.0-1.42","","369.4899999536574","Stim/Stim-GB/NM_M.PNG","66","","","1","exp","100","2","1","C","b","true"
"fixation-image-keyboard-release-original","1712","255425","0.0-23.0-1.43","","446.5099999215454","Stim/Stim-GB/II_M.PNG","66","","","2","exp","700","1","1","IC","b","true"
"fixation-image-keyboard-release-original","1713","257883","0.0-23.0-1.44","","456.29500003997236","Stim/Stim-GB/NI_I.PNG","66","","","1","exp","100","1","0","C","v","false"
"fixation-image-keyboard-release-original","1714","260266","0.0-23.0-1.45","","378.41999996453524","Stim/Stim-BG/MM_I.PNG","86","","","2","exp","400","2","0","IC","v","true"
"fixation-image-keyboard-release-original","1715","262729","0.0-23.0-1.46","","459.79500003159046","Stim/Stim-GB/NM_M.PNG","66","","","1","exp","700","2","1","C","b","true"
"fixation-image-keyboard-release-original","1716","265231","0.0-23.0-1.47","","497.2699999343604","Stim/Stim-BG/NM_M.PNG","66","","","1","exp","400","2","1","C","b","true"
"html-keyboard-response","1717","365272","0.0-23.0-2.47-0.47","","99039.54000002705","Take a break. Feel free to start again by pressing Enter.","13","","","","","","","","","",""
"fixation-image-keyboard-release-original","1849","367372","0.0-23.0-1.48","","458.9299999643117","Stim/Stim-GB/II_I.PNG","86","","","2","exp","400","1","0","C","v","true"
"fixation-image-keyboard-release-original","1850","369737","0.0-23.0-1.49","","361.7599999997765","Stim/Stim-GB/MN_I.PNG","86","","","1","exp","100","2","0","IC","v","true"
"fixation-image-keyboard-release-original","1851","372082","0.0-23.0-1.50","","343.13499997369945","Stim/Stim-GB/NM_M.PNG","66","","","1","exp","100","2","1","C","b","true"
"fixation-image-keyboard-release-original","1852","374574","0.0-23.0-1.51","","488.81000000983477","Stim/Stim-BG/MM_I.PNG","86","","","2","exp","700","2","0","IC","v","true"
"fixation-image-keyboard-release-original","1853","376992","0.0-23.0-1.52","","415.65999994054437","Stim/Stim-BG/MM_M.PNG","66","","","2","exp","100","2","1","C","b","true"
"fixation-image-keyboard-release-original","1854","379438","0.0-23.0-1.53","","441.6350000537932","Stim/Stim-BG/II_M.PNG","66","","","2","exp","100","1","1","IC","b","true"
"fixation-image-keyboard-release-original","1855","381791","0.0-23.0-1.54","","349.6349999913946","Stim/Stim-BG/MM_I.PNG","86","","","2","exp","700","2","0","IC","v","true"
"fixation-image-keyboard-release-original","1856","384234","0.0-23.0-1.55","","439.3749999580905","Stim/Stim-BG/MN_M.PNG","66","","","1","exp","400","2","1","C","b","true"
"fixation-image-keyboard-release-original","1857","386666","0.0-23.0-1.56","","429.6149999136105","Stim/Stim-GB/II_I.PNG","86","","","2","exp","700","1","0","C","v","true"
"fixation-image-keyboard-release-original","1858","389093","0.0-23.0-1.57","","423.2149999588728","Stim/Stim-BG/MN_M.PNG","86","","","1","exp","100","2","1","C","b","false"
"fixation-image-keyboard-release-original","1859","391469","0.0-23.0-1.58","","373.48999991081655","Stim/Stim-GB/MM_I.PNG","86","","","2","exp","700","2","0","IC","v","true"
"fixation-image-keyboard-release-original","1860","393918","0.0-23.0-1.59","","445.86999993771315","Stim/Stim-BG/NI_I.PNG","86","","","1","exp","100","1","0","C","v","true"
"fixation-image-keyboard-release-original","1861","396238","0.0-23.0-1.60","","315.8050000201911","Stim/Stim-BG/II_I.PNG","86","","","2","exp","400","1","0","C","v","true"
"fixation-image-keyboard-release-original","1862","398656","0.0-23.0-1.61","","414.1199999721721","Stim/Stim-GB/II_M.PNG","66","","","2","exp","400","1","1","IC","b","true"
"fixation-image-keyboard-release-original","1863","401110","0.0-23.0-1.62","","450.0000000698492","Stim/Stim-BG/IN_M.PNG","66","","","1","exp","100","1","1","IC","b","true"
"fixation-image-keyboard-release-original","1864","403498","0.0-23.0-1.63","","385.7599999755621","Stim/Stim-GB/II_I.PNG","86","","","2","exp","100","1","0","C","v","true"
"fixation-image-keyboard-release-original","1865","405937","0.0-23.0-1.64","","437.04499991144985","Stim/Stim-BG/MM_M.PNG","66","","","2","exp","100","2","1","C","b","true"
"fixation-image-keyboard-release-original","1866","408327","0.0-23.0-1.65","","385.26000001002103","Stim/Stim-BG/MM_M.PNG","66","","","2","exp","700","2","1","C","b","true"
"fixation-image-keyboard-release-original","1867","410685","0.0-23.0-1.66","","355.56000005453825","Stim/Stim-GB/MM_I.PNG","86","","","2","exp","700","2","0","IC","v","true"
"fixation-image-keyboard-release-original","1868","413002","0.0-23.0-1.67","","314.43999998737127","Stim/Stim-BG/II_I.PNG","86","","","2","exp","100","1","0","C","v","true"
"fixation-image-keyboard-release-original","1869","415410","0.0-23.0-1.68","","404.685000074096","Stim/Stim-GB/MN_M.PNG","66","","","1","exp","700","2","1","C","b","true"
"fixation-image-keyboard-release-original","1870","417870","0.0-23.0-1.69","","456.6050000721589","Stim/Stim-GB/II_I.PNG","86","","","2","exp","100","1","0","C","v","true"
"fixation-image-keyboard-release-original","1871","420275","0.0-23.0-1.70","","402.1649999776855","Stim/Stim-GB/MN_M.PNG","66","","","1","exp","400","2","1","C","b","true"
"fixation-image-keyboard-release-original","1872","422564","0.0-23.0-1.71","","286.155000096187","Stim/Stim-BG/MN_I.PNG","86","","","1","exp","400","2","0","IC","v","true"
"fixation-image-keyboard-release-original","1873","424966","0.0-23.0-1.72","","398.3399999560788","Stim/Stim-GB/MM_M.PNG","66","","","2","exp","400","2","1","C","b","true"
"fixation-image-keyboard-release-original","1874","427292","0.0-23.0-1.73","","323.36499996017665","Stim/Stim-GB/MN_I.PNG","86","","","1","exp","700","2","0","IC","v","true"
"fixation-image-keyboard-release-original","1875","429735","0.0-23.0-1.74","","440.44999999459833","Stim/Stim-BG/II_M.PNG","66","","","2","exp","700","1","1","IC","b","true"
"fixation-image-keyboard-release-original","1876","432022","0.0-23.0-1.75","","284.4349999213591","Stim/Stim-GB/NI_M.PNG","66","","","1","exp","400","1","1","IC","b","true"
"fixation-image-keyboard-release-original","1877","434371","0.0-23.0-1.76","","344.8749999515712","Stim/Stim-GB/MN_M.PNG","66","","","1","exp","100","2","1","C","b","true"
"fixation-image-keyboard-release-original","1878","436685","0.0-23.0-1.77","","311.15500000305474","Stim/Stim-BG/II_I.PNG","66","","","2","exp","100","1","0","C","v","false"
"fixation-image-keyboard-release-original","1879","439116","0.0-23.0-1.78","","428.58500010333955","Stim/Stim-BG/NI_M.PNG","66","","","1","exp","400","1","1","IC","b","true"
"fixation-image-keyboard-release-original","1880","441452","0.0-23.0-1.79","","332.2700000135228","Stim/Stim-GB/MM_M.PNG","86","","","2","exp","100","2","1","C","b","false"
"fixation-image-keyboard-release-original","1881","443806","0.0-23.0-1.80","","352.7349999640137","Stim/Stim-BG/MN_M.PNG","66","","","1","exp","700","2","1","C","b","true"
"fixation-image-keyboard-release-original","1882","446132","0.0-23.0-1.81","","323.3849999960512","Stim/Stim-GB/II_M.PNG","66","","","2","exp","100","1","1","IC","b","true"
"fixation-image-keyboard-release-original","1883","448491","0.0-23.0-1.82","","355.07499997038394","Stim/Stim-BG/IN_I.PNG","86","","","1","exp","100","1","0","C","v","true"
"fixation-image-keyboard-release-original","1884","450972","0.0-23.0-1.83","","477.89999993983656","Stim/Stim-GB/MM_M.PNG","66","","","2","exp","400","2","1","C","b","true"
"fixation-image-keyboard-release-original","1885","453429","0.0-23.0-1.84","","453.83999997284263","Stim/Stim-GB/NI_M.PNG","66","","","1","exp","100","1","1","IC","b","true"
"fixation-image-keyboard-release-original","1886","455751","0.0-23.0-1.85","","319.3849999224767","Stim/Stim-BG/NM_M.PNG","66","","","1","exp","700","2","1","C","b","true"
"fixation-image-keyboard-release-original","1887","458017","0.0-23.0-1.86","","263.99500004481524","Stim/Stim-GB/II_M.PNG","66","","","2","exp","700","1","1","IC","b","true"
"fixation-image-keyboard-release-original","1888","460440","0.0-23.0-1.87","","419.4399999687448","Stim/Stim-BG/MM_I.PNG","86","","","2","exp","100","2","0","IC","v","true"
"fixation-image-keyboard-release-original","1889","462786","0.0-23.0-1.88","","343.5899999458343","Stim/Stim-GB/IN_I.PNG","86","","","1","exp","400","1","0","C","v","true"
"fixation-image-keyboard-release-original","1890","465262","0.0-23.0-1.89","","472.92499989271164","Stim/Stim-GB/MM_M.PNG","86","","","2","exp","400","2","1","C","b","false"
"fixation-image-keyboard-release-original","1891","467686","0.0-23.0-1.90","","420.8850000286475","Stim/Stim-GB/II_I.PNG","86","","","2","exp","400","1","0","C","v","true"
"fixation-image-keyboard-release-original","1892","470060","0.0-23.0-1.91","","371.625000028871","Stim/Stim-BG/II_M.PNG","66","","","2","exp","700","1","1","IC","b","true"
"fixation-image-keyboard-release-original","1893","472380","0.0-23.0-1.92","","317.8100000368431","Stim/Stim-GB/MM_I.PNG","86","","","2","exp","700","2","0","IC","v","true"
"fixation-image-keyboard-release-original","1894","474749","0.0-23.0-1.93","","365.019999910146","Stim/Stim-BG/MM_I.PNG","86","","","2","exp","400","2","0","IC","v","true"
"fixation-image-keyboard-release-original","1895","477128","0.0-23.0-1.94","","376.9249999895692","Stim/Stim-GB/II_M.PNG","66","","","2","exp","400","1","1","IC","b","true"
"fixation-image-keyboard-release-original","1896","479604","0.0-23.0-1.95","","472.7949999505654","Stim/Stim-GB/MM_I.PNG","86","","","2","exp","400","2","0","IC","v","true"
"html-keyboard-response","1897","482634","0.0-23.0-2.95-0.95","","2027.6750000193715","Take a break. Feel free to start again by pressing Enter.","13","","","","","","","","","",""
"fixation-image-keyboard-release-original","1998","484489","0.0-23.0-1.96","","362.95500001870096","Stim/Stim-BG/IN_M.PNG","66","","","1","exp","700","1","1","IC","b","true"
"fixation-image-keyboard-release-original","1999","486847","0.0-23.0-1.97","","355.7599999476224","Stim/Stim-GB/II_I.PNG","86","","","2","exp","700","1","0","C","v","true"
"fixation-image-keyboard-release-original","2000","489268","0.0-23.0-1.98","","419.5400000317022","Stim/Stim-BG/MM_I.PNG","86","","","2","exp","700","2","0","IC","v","true"
"fixation-image-keyboard-release-original","2001","491679","0.0-23.0-1.99","","408.55500008910894","Stim/Stim-GB/II_M.PNG","66","","","2","exp","400","1","1","IC","b","true"
"fixation-image-keyboard-release-original","2002","494186","0.0-23.0-1.100","","504.24000003840774","Stim/Stim-BG/II_M.PNG","66","","","2","exp","700","1","1","IC","b","true"
"fixation-image-keyboard-release-original","2003","496597","0.0-23.0-1.101","","408.2150000613183","Stim/Stim-GB/IN_I.PNG","86","","","1","exp","400","1","0","C","v","true"
"fixation-image-keyboard-release-original","2004","499040","0.0-23.0-1.102","","440.10999996680766","Stim/Stim-BG/NI_M.PNG","86","","","1","exp","700","1","1","IC","b","false"
"fixation-image-keyboard-release-original","2005","501553","0.0-23.0-1.103","","509.86999995075166","Stim/Stim-GB/IN_M.PNG","66","","","1","exp","100","1","1","IC","b","true"
"fixation-image-keyboard-release-original","2006","503997","0.0-23.0-1.104","","441.54999998863786","Stim/Stim-BG/MM_I.PNG","86","","","2","exp","100","2","0","IC","v","true"
"fixation-image-keyboard-release-original","2007","506359","0.0-23.0-1.105","","359.0550000080839","Stim/Stim-GB/IN_M.PNG","66","","","1","exp","700","1","1","IC","b","true"
"fixation-image-keyboard-release-original","2008","508791","0.0-23.0-1.106","","427.98499995842576","Stim/Stim-BG/II_I.PNG","86","","","2","exp","100","1","0","C","v","true"
"fixation-image-keyboard-release-original","2009","511165","0.0-23.0-1.107","","371.6599999461323","Stim/Stim-BG/IN_M.PNG","66","","","1","exp","400","1","1","IC","b","true"
"fixation-image-keyboard-release-original","2010","513555","0.0-23.0-1.108","","386.08000008389354","Stim/Stim-GB/MM_M.PNG","66","","","2","exp","700","2","1","C","b","true"
"fixation-image-keyboard-release-original","2011","515881","0.0-23.0-1.109","","324.65500000398606","Stim/Stim-GB/NI_I.PNG","66","","","1","exp","700","1","0","C","v","false"
"fixation-image-keyboard-release-original","2012","518361","0.0-23.0-1.110","","477.42999996989965","Stim/Stim-GB/MM_M.PNG","66","","","2","exp","100","2","1","C","b","true"
"fixation-image-keyboard-release-original","2013","520697","0.0-23.0-1.111","","333.5499999811873","Stim/Stim-GB/II_I.PNG","86","","","2","exp","700","1","0","C","v","true"
"fixation-image-keyboard-release-original","2014","523029","0.0-23.0-1.112","","329.0049999486655","Stim/Stim-BG/II_M.PNG","66","","","2","exp","400","1","1","IC","b","true"
"fixation-image-keyboard-release-original","2015","525334","0.0-23.0-1.113","","301.3300000457093","Stim/Stim-GB/II_M.PNG","66","","","2","exp","700","1","1","IC","b","true"
"fixation-image-keyboard-release-original","2016","527660","0.0-23.0-1.114","","324.4300000369549","Stim/Stim-GB/II_I.PNG","66","","","2","exp","400","1","0","C","v","false"
"fixation-image-keyboard-release-original","2017","529984","0.0-23.0-1.115","","320.78499998897314","Stim/Stim-GB/IN_M.PNG","66","","","1","exp","100","1","1","IC","b","true"
"fixation-image-keyboard-release-original","2018","532431","0.0-23.0-1.116","","444.0150000154972","Stim/Stim-GB/MM_M.PNG","66","","","2","exp","100","2","1","C","b","true"
"fixation-image-keyboard-release-original","2019","534853","0.0-23.0-1.117","","419.6549999760464","Stim/Stim-BG/MN_I.PNG","86","","","1","exp","100","2","0","IC","v","true"
"fixation-image-keyboard-release-original","2020","537211","0.0-23.0-1.118","","354.80999993160367","Stim/Stim-BG/MM_M.PNG","66","","","2","exp","700","2","1","C","b","true"
"fixation-image-keyboard-release-original","2021","539548","0.0-23.0-1.119","","334.64499993715435","Stim/Stim-BG/II_I.PNG","86","","","2","exp","400","1","0","C","v","true"
"fixation-image-keyboard-release-original","2022","542055","0.0-23.0-1.120","","502.85000004805624","Stim/Stim-GB/NI_I.PNG","86","","","1","exp","400","1","0","C","v","true"
"fixation-image-keyboard-release-original","2023","544398","0.0-23.0-1.121","","340.1900000171736","Stim/Stim-GB/NM_I.PNG","86","","","1","exp","400","2","0","IC","v","true"
"fixation-image-keyboard-release-original","2024","546717","0.0-23.0-1.122","","315.5249999836087","Stim/Stim-BG/IN_I.PNG","86","","","1","exp","400","1","0","C","v","true"
"fixation-image-keyboard-release-original","2025","549075","0.0-23.0-1.123","","353.91999990679324","Stim/Stim-GB/NI_I.PNG","86","","","1","exp","400","1","0","C","v","true"
"fixation-image-keyboard-release-original","2026","551375","0.0-23.0-1.124","","297.62500000651926","Stim/Stim-BG/IN_I.PNG","86","","","1","exp","400","1","0","C","v","true"
"fixation-image-keyboard-release-original","2027","553750","0.0-23.0-1.125","","373.6250000074506","Stim/Stim-BG/MM_M.PNG","66","","","2","exp","100","2","1","C","b","true"
"fixation-image-keyboard-release-original","2028","556154","0.0-23.0-1.126","","399.78000009432435","Stim/Stim-GB/MM_I.PNG","86","","","2","exp","400","2","0","IC","v","true"
"fixation-image-keyboard-release-original","2029","558661","0.0-23.0-1.127","","503.4650000743568","Stim/Stim-GB/NM_I.PNG","86","","","1","exp","100","2","0","IC","v","true"
"fixation-image-keyboard-release-original","2030","561141","0.0-23.0-1.128","","477.1900000050664","Stim/Stim-BG/II_M.PNG","66","","","2","exp","400","1","1","IC","b","true"
"fixation-image-keyboard-release-original","2031","563638","0.0-23.0-1.129","","492.9750000592321","Stim/Stim-GB/MM_M.PNG","66","","","2","exp","700","2","1","C","b","true"
"fixation-image-keyboard-release-original","2032","566033","0.0-23.0-1.130","","392.78499991633","Stim/Stim-BG/II_I.PNG","86","","","2","exp","400","1","0","C","v","true"
"fixation-image-keyboard-release-original","2033","568455","0.0-23.0-1.131","","419.2850000690669","Stim/Stim-BG/NM_I.PNG","86","","","1","exp","100","2","0","IC","v","true"
"fixation-image-keyboard-release-original","2034","570758","0.0-23.0-1.132","","301.11500003840774","Stim/Stim-GB/MM_I.PNG","86","","","2","exp","700","2","0","IC","v","true"
"fixation-image-keyboard-release-original","2035","573139","0.0-23.0-1.133","","377.32499989215285","Stim/Stim-BG/MM_I.PNG","86","","","2","exp","700","2","0","IC","v","true"
"fixation-image-keyboard-release-original","2036","575501","0.0-23.0-1.134","","360.07499997504056","Stim/Stim-BG/MM_M.PNG","66","","","2","exp","400","2","1","C","b","true"
"fixation-image-keyboard-release-original","2037","577800","0.0-23.0-1.135","","295.95000005792826","Stim/Stim-BG/NM_I.PNG","86","","","1","exp","700","2","0","IC","v","true"
"fixation-image-keyboard-release-original","2038","580266","0.0-23.0-1.136","","461.39499999117106","Stim/Stim-GB/NI_I.PNG","86","","","1","exp","700","1","0","C","v","true"
"fixation-image-keyboard-release-original","2039","582682","0.0-23.0-1.137","","413.95999991800636","Stim/Stim-BG/IN_M.PNG","66","","","1","exp","700","1","1","IC","b","true"
"fixation-image-keyboard-release-original","2040","585104","0.0-23.0-1.138","","417.505000019446","Stim/Stim-GB/NI_M.PNG","66","","","1","exp","100","1","1","IC","b","true"
"fixation-image-keyboard-release-original","2041","587461","0.0-23.0-1.139","","355.40000000037253","Stim/Stim-BG/II_M.PNG","66","","","2","exp","400","1","1","IC","b","true"
"fixation-image-keyboard-release-original","2042","589793","0.0-23.0-1.140","","327.7900000102818","Stim/Stim-BG/NI_I.PNG","86","","","1","exp","400","1","0","C","v","true"
"fixation-image-keyboard-release-original","2043","592210","0.0-23.0-1.141","","414.8399999830872","Stim/Stim-BG/NI_I.PNG","86","","","1","exp","700","1","0","C","v","true"
"fixation-image-keyboard-release-original","2044","594562","0.0-23.0-1.142","","347.9199999710545","Stim/Stim-BG/NI_M.PNG","66","","","1","exp","100","1","1","IC","b","true"
"fixation-image-keyboard-release-original","2045","596936","0.0-23.0-1.143","","371.9600000185892","Stim/Stim-GB/NM_M.PNG","66","","","1","exp","700","2","1","C","b","true"
"html-keyboard-response","2046","636438","0.0-23.0-2.143-0.143","","38498.95000003744","Take a break. Feel free to start again by pressing Enter.","13","","","","","","","","","",""
"fixation-image-keyboard-release-original","2242","638830","0.0-23.0-1.144","","425.81499996595085","Stim/Stim-BG/MN_M.PNG","66","","","1","exp","400","2","1","C","b","true"
"fixation-image-keyboard-release-original","2243","641226","0.0-23.0-1.145","","391.730000032112","Stim/Stim-GB/MM_I.PNG","86","","","2","exp","100","2","0","IC","v","true"
"fixation-image-keyboard-release-original","2244","643584","0.0-23.0-1.146","","354.979999945499","Stim/Stim-BG/MM_I.PNG","86","","","2","exp","100","2","0","IC","v","true"
"fixation-image-keyboard-release-original","2245","646063","0.0-23.0-1.147","","477.309999987483","Stim/Stim-BG/NM_I.PNG","86","","","1","exp","100","2","0","IC","v","true"
"fixation-image-keyboard-release-original","2246","648431","0.0-23.0-1.148","","364.6300000837073","Stim/Stim-GB/NM_M.PNG","66","","","1","exp","400","2","1","C","b","true"
"fixation-image-keyboard-release-original","2247","650769","0.0-23.0-1.149","","333.794999984093","Stim/Stim-GB/NM_M.PNG","66","","","1","exp","400","2","1","C","b","true"
"fixation-image-keyboard-release-original","2248","653106","0.0-23.0-1.150","","332.19999994616956","Stim/Stim-BG/MN_I.PNG","86","","","1","exp","100","2","0","IC","v","true"
"fixation-image-keyboard-release-original","2249","655394","0.0-23.0-1.151","","284.9350000033155","Stim/Stim-GB/NM_I.PNG","86","","","1","exp","700","2","0","IC","v","true"
"fixation-image-keyboard-release-original","2250","657791","0.0-23.0-1.152","","393.87999998871237","Stim/Stim-GB/II_M.PNG","66","","","2","exp","100","1","1","IC","b","true"
"fixation-image-keyboard-release-original","2251","660141","0.0-23.0-1.153","","346.69999999459833","Stim/Stim-GB/II_M.PNG","66","","","2","exp","700","1","1","IC","b","true"
"fixation-image-keyboard-release-original","2252","662528","0.0-23.0-1.154","","383.5499999113381","Stim/Stim-BG/NM_I.PNG","86","","","1","exp","700","2","0","IC","v","true"
"fixation-image-keyboard-release-original","2253","664873","0.0-23.0-1.155","","342.7049999590963","Stim/Stim-BG/NM_M.PNG","66","","","1","exp","100","2","1","C","b","true"
"fixation-image-keyboard-release-original","2254","667179","0.0-23.0-1.156","","301.65000003762543","Stim/Stim-BG/NM_M.PNG","66","","","1","exp","400","2","1","C","b","true"
"fixation-image-keyboard-release-original","2255","669500","0.0-23.0-1.157","","318.44000006094575","Stim/Stim-BG/MN_M.PNG","86","","","1","exp","100","2","1","C","b","false"
"fixation-image-keyboard-release-original","2256","671875","0.0-23.0-1.158","","372.5450000492856","Stim/Stim-GB/NI_M.PNG","66","","","1","exp","700","1","1","IC","b","true"
"fixation-image-keyboard-release-original","2257","674335","0.0-23.0-1.159","","457.2850000113249","Stim/Stim-GB/MM_M.PNG","66","","","2","exp","700","2","1","C","b","true"
"fixation-image-keyboard-release-original","2258","676703","0.0-23.0-1.160","","363.8199999695644","Stim/Stim-BG/MM_M.PNG","66","","","2","exp","400","2","1","C","b","true"
"fixation-image-keyboard-release-original","2259","679145","0.0-23.0-1.161","","439.5350000122562","Stim/Stim-BG/II_I.PNG","86","","","2","exp","400","1","0","C","v","true"
"fixation-image-keyboard-release-original","2260","681525","0.0-23.0-1.162","","377.669999958016","Stim/Stim-BG/MM_M.PNG","66","","","2","exp","400","2","1","C","b","true"
"fixation-image-keyboard-release-original","2261","684010","0.0-23.0-1.163","","481.59999994095415","Stim/Stim-GB/MN_I.PNG","86","","","1","exp","400","2","0","IC","v","true"
"fixation-image-keyboard-release-original","2262","686379","0.0-23.0-1.164","","364.9599999189377","Stim/Stim-GB/MM_I.PNG","86","","","2","exp","100","2","0","IC","v","true"
"fixation-image-keyboard-release-original","2263","688855","0.0-23.0-1.165","","472.73999999742955","Stim/Stim-GB/IN_M.PNG","66","","","1","exp","400","1","1","IC","b","true"
"fixation-image-keyboard-release-original","2264","691238","0.0-23.0-1.166","","380.8799999533221","Stim/Stim-GB/MN_M.PNG","86","","","1","exp","400","2","1","C","b","false"
"fixation-image-keyboard-release-original","2265","693763","0.0-23.0-1.167","","522.0549999503419","Stim/Stim-GB/NM_I.PNG","86","","","1","exp","400","2","0","IC","v","true"
"fixation-image-keyboard-release-original","2266","696085","0.0-23.0-1.168","","317.53000000026077","Stim/Stim-BG/IN_I.PNG","86","","","1","exp","700","1","0","C","v","true"
"fixation-image-keyboard-release-original","2267","698512","0.0-23.0-1.169","","424.5050000026822","Stim/Stim-BG/IN_M.PNG","66","","","1","exp","400","1","1","IC","b","true"
"fixation-image-keyboard-release-original","2268","700802","0.0-23.0-1.170","","287.03000000678","Stim/Stim-BG/NI_M.PNG","66","","","1","exp","100","1","1","IC","b","true"
"fixation-image-keyboard-release-original","2269","703225","0.0-23.0-1.171","","418.5949999373406","Stim/Stim-BG/II_I.PNG","86","","","2","exp","700","1","0","C","v","true"
"fixation-image-keyboard-release-original","2270","705735","0.0-23.0-1.172","","505.4600000148639","Stim/Stim-BG/NM_I.PNG","86","","","1","exp","400","2","0","IC","v","true"
"fixation-image-keyboard-release-original","2271","708171","0.0-23.0-1.173","","433.11500002164394","Stim/Stim-BG/II_I.PNG","86","","","2","exp","100","1","0","C","v","true"
"fixation-image-keyboard-release-original","2272","710573","0.0-23.0-1.174","","398.05499999783933","Stim/Stim-BG/II_M.PNG","86","","","2","exp","100","1","1","IC","b","false"
"fixation-image-keyboard-release-original","2273","713058","0.0-23.0-1.175","","481.1449999688193","Stim/Stim-BG/II_I.PNG","86","","","2","exp","700","1","0","C","v","true"
"fixation-image-keyboard-release-original","2274","715417","0.0-23.0-1.176","","355.9499999973923","Stim/Stim-GB/MM_I.PNG","86","","","2","exp","100","2","0","IC","v","true"
"fixation-image-keyboard-release-original","2275","717923","0.0-23.0-1.177","","503.70500003919005","Stim/Stim-BG/MM_M.PNG","66","","","2","exp","400","2","1","C","b","true"
"fixation-image-keyboard-release-original","2276","720340","0.0-23.0-1.178","","414.10000005271286","Stim/Stim-BG/MM_M.PNG","66","","","2","exp","700","2","1","C","b","true"
"fixation-image-keyboard-release-original","2277","722719","0.0-23.0-1.179","","376.8850000342354","Stim/Stim-BG/MN_M.PNG","66","","","1","exp","700","2","1","C","b","true"
"fixation-image-keyboard-release-original","2278","725013","0.0-23.0-1.180","","290.8450000686571","Stim/Stim-GB/NI_M.PNG","66","","","1","exp","400","1","1","IC","b","true"
"fixation-image-keyboard-release-original","2279","727415","0.0-23.0-1.181","","399.15499999187887","Stim/Stim-BG/NI_I.PNG","86","","","1","exp","100","1","0","C","v","true"
"fixation-image-keyboard-release-original","2280","729740","0.0-23.0-1.182","","321.0749999852851","Stim/Stim-GB/IN_I.PNG","86","","","1","exp","100","1","0","C","v","true"
"fixation-image-keyboard-release-original","2281","732145","0.0-23.0-1.183","","400.6550000049174","Stim/Stim-BG/MM_I.PNG","86","","","2","exp","400","2","0","IC","v","true"
"fixation-image-keyboard-release-original","2282","734567","0.0-23.0-1.184","","417.7999999374151","Stim/Stim-GB/NI_M.PNG","66","","","1","exp","700","1","1","IC","b","true"
"fixation-image-keyboard-release-original","2283","736946","0.0-23.0-1.185","","376.2550000101328","Stim/Stim-GB/MN_M.PNG","66","","","1","exp","700","2","1","C","b","true"
"fixation-image-keyboard-release-original","2284","739389","0.0-23.0-1.186","","440.279999980703","Stim/Stim-GB/IN_I.PNG","86","","","1","exp","700","1","0","C","v","true"
"fixation-image-keyboard-release-original","2285","741733","0.0-23.0-1.187","","340.8049999270588","Stim/Stim-GB/IN_I.PNG","86","","","1","exp","100","1","0","C","v","true"
"fixation-image-keyboard-release-original","2286","744057","0.0-23.0-1.188","","322.03999999910593","Stim/Stim-GB/II_I.PNG","86","","","2","exp","700","1","0","C","v","true"
"fixation-image-keyboard-release-original","2287","746405","0.0-23.0-1.189","","344.8249999200925","Stim/Stim-BG/MN_I.PNG","86","","","1","exp","700","2","0","IC","v","true"
"fixation-image-keyboard-release-original","2288","748747","0.0-23.0-1.190","","339.88500002305955","Stim/Stim-GB/NM_I.PNG","86","","","1","exp","100","2","0","IC","v","true"
"fixation-image-keyboard-release-original","2289","751094","0.0-23.0-1.191","","341.5450000902638","Stim/Stim-GB/MN_I.PNG","86","","","1","exp","400","2","0","IC","v","true"
"call-function","2290","752096","0.0-24.0","","","","","","","","","","","","","",""
"survey-html-form","2291","755324","0.0-25.0","","3226.814999943599","","","{""hands2"":""Right""}","","","","","","","","",""
"html-keyboard-response","2292","772074","0.0-26.0","","16749.92500001099","<p><h1>This is the end of the experiment.</h1></p><p>Please <a href='Debrief.pdf' target='_blank'>Click Here</a> (this will open a new window) to read more about the study.</p><p>Press ENTER to end the experiment (you will be sent to Prolific - if something goes wrong, the completion code for this study is: 3F11CBBF).</p>","13","","","","","","","","","",""
"pavlovia","2293","772081","0.0-27.0","","","","","","","","","","","","","",""
