"trial_type","trial_index","time_elapsed","internal_node_id","value","rt","stimulus","key_press","responses","success","hand","test","gap","finger","cue","con","correct_response","correct"
"pavlovia","0","4","0.0-0.0","","","","","","","","","","","","","",""
"call-function","1","4","0.0-1.0","","","","","","","","","","","","","",""
"html-keyboard-response","2","22750","0.0-2.0","","22744.290000060573","<div class = 'my_window'><p><h1>Welcome!</h1><br><p><p>This experiment is adminterested by Carl Michael Galang (McMaster University), Dr. Emiel Cracco (Ghent University), Dr. Marcel Brass (Humboldt University of Berlin), & Dr. Sukhvinder Obhi (McMaster University).</p><p>The purpose of this study is to explore basic perceptual processing mechanisms.</p><p>Information gathered during this study will be written up for publication in an academic journal. While there are no direct benefits to you taking part in this study (other than learning more about the research topic and getting paid on Prolific), the results of this study will provide us with a better understanding of perceptual and sensory processes. To learn about this study, particularly in the terms of any associated risks or harms, how confidentiality and anonymity will be handled, withdrawal procedures, incentives that are promised, how to obtain information about the results, etc., please read the accompanying letter of information - <a href='LOI.pdf' target='_blank'>Click Here</a> (this will open a new window).</p><p>This study should take around 10min to complete.</p><p>If you have questions or need more information about the study itself, please contact me at: galangc@mcmaster.ca. This study has been reviewed by the McMaster University Research Ethics Board and received ethics clearance. If you have concerns or questions about your rights as a participant or about the way the study is conducted, please contact the McMaster Research Ethics Secretariat at ethicsoffice@mcmaster.ca.</p><br><p><h1>CONSENT</h1></p><p>I have read the information presented in the letter of information and I agree to participate in this study.</p><p>By pressing Enter, I consent to the above.<p>","13","","","","","","","","","",""
"survey-html-form","3","29708","0.0-3.0","","6956.940000061877","","","{""1"":""5ca63f420862d200177477cd""}","","","","","","","","",""
"fullscreen","4","33061","0.0-4.0","","","","","","true","","","","","","","",""
"call-function","5","33062","0.0-5.0","","","","","","","","","","","","","",""
"html-keyboard-response","6","78793","0.0-6.0","","45726.65000008419","<div class = 'my_window'><h1>Instructions</h1><p>Your task in this experiment is to respond to the letters I or M as they appear on the screen. Unlike most experiments, your task will be to <strong><u>release</u></strong> keys (not push).</p><p>Before each trial starts, please ensure that you keep the <strong><u>V key</u></strong> and <strong><u>B key</u></strong> depressed with your <strong><u>right index finger</u></strong> on the <strong><u>V key</u></strong> and your <strong><u>right middle finger</u></strong> on the <strong><u>B key</u></strong> (see image below). Responses on this experiment will consist of lifting your <strong><u>right index finger</u></strong> to release the <strong><u>V key</u></strong> if you see the letter <strong><u>I</u></strong> or lifting your <strong><u>right middle finger</u></strong> to release the <strong><u>B key</u></strong> if you see the letter <strong><u>M</u></strong> as fast as you can. It is important that you <strong><u>only use your right hand</u></strong> to do the task.</p><p><img src='keyboard_img.png'></p><p>While you complete this task, there will be a couple of hands moving in the background. Ignore them and focus on the task.</p><p>Press ENTER to continue.</p></div>","13","","","","","","","","","",""
"html-keyboard-response","7","93756","0.0-7.0","","14962.41000003647","<div class = 'my_window'><h1>Practice</h1><p>You will first do a practice phase. In the practice phase, you will get feedback on your performance. The practice phase contains 10 trials, but will add an extra trial every time you respond incorrectly.</p><p><p>Before each trial starts, please ensure that you keep the <strong><u>V key</u></strong> and <strong><u>B key</u></strong> depressed with your <strong><u>right index finger</u></strong> on the <strong><u>V key</u></strong> and your <strong><u>right middle finger</u></strong> on the <strong><u>B key</u></strong> (see image below). Responses on this experiment will consist of lifting your <strong><u>right index finger</u></strong> to release the <strong><u>V key</u></strong> if you see the letter <strong><u>I</u></strong> or lifting your <strong><u>right middle finger</u></strong> to release the <strong><u>B key</u></strong> if you see the letter <strong><u>M</u></strong> as fast as you can. It is important that you <strong><u>only use your right hand</u></strong> to do the task.</p><p><img src='keyboard_img.png'></p><p>While you complete this task, there will be a couple of hands moving in the background. Ignore them and focus on the task.</p><p>This is a reaction time experiment, so please try to respond as fast as possible while at the same time minimizing mistakes.</p><p>Press ENTER to begin.</p></div>","13","","","","","","","","","",""
"fixation-image-keyboard-release-original","604","99360","0.0-8.0-1.0","","1583.00500002224","Stim/Stim-GB/NI_M.PNG","66","","","1","exp","100","1","1","IC","b","true"
"html-keyboard-response","605","100466","0.0-8.0-2.0","","null","<p> CORRECT </p>","null","","","","","","","","","",""
"fixation-image-keyboard-release-original","833","103020","0.0-9.0-1.0","","403.9799999445677","Stim/Stim-GB/IN_I.PNG","86","","","1","exp","400","1","0","C","v","true"
"html-keyboard-response","834","104124","0.0-9.0-2.0","","null","<p> CORRECT </p>","null","","","","","","","","","",""
"fixation-image-keyboard-release-original","921","105932","0.0-10.0-1.0","","372.84000008367","Stim/Stim-GB/MM_I.PNG","86","","","2","exp","100","2","0","IC","v","true"
"html-keyboard-response","922","107048","0.0-10.0-2.0","","null","<p> CORRECT </p>","null","","","","","","","","","",""
"fixation-image-keyboard-release-original","946","108589","0.0-11.0-1.0","","423.4550000401214","Stim/Stim-BG/II_I.PNG","86","","","2","exp","100","1","0","C","v","true"
"html-keyboard-response","947","109693","0.0-11.0-2.0","","null","<p> CORRECT </p>","null","","","","","","","","","",""
"fixation-image-keyboard-release-original","982","111346","0.0-12.0-1.0","","475.57000000961125","Stim/Stim-BG/MM_M.PNG","66","","","2","exp","100","2","1","C","b","true"
"html-keyboard-response","983","112458","0.0-12.0-2.0","","null","<p> CORRECT </p>","null","","","","","","","","","",""
"fixation-image-keyboard-release-original","984","113832","0.0-13.0-1.0","","356.7299999995157","Stim/Stim-BG/MM_I.PNG","86","","","2","exp","700","2","0","IC","v","true"
"html-keyboard-response","985","114942","0.0-13.0-2.0","","null","<p> CORRECT </p>","null","","","","","","","","","",""
"fixation-image-keyboard-release-original","986","116306","0.0-14.0-1.0","","348.95499993581325","Stim/Stim-BG/MN_I.PNG","86","","","1","exp","700","2","0","IC","v","true"
"html-keyboard-response","987","117418","0.0-14.0-2.0","","null","<p> CORRECT </p>","null","","","","","","","","","",""
"fixation-image-keyboard-release-original","988","118803","0.0-15.0-1.0","","369.8249999433756","Stim/Stim-BG/IN_I.PNG","86","","","1","exp","100","1","0","C","v","true"
"html-keyboard-response","989","119924","0.0-15.0-2.0","","null","<p> CORRECT </p>","null","","","","","","","","","",""
"fixation-image-keyboard-release-original","990","121464","0.0-16.0-1.0","","536.6300001041964","Stim/Stim-BG/NM_I.PNG","86","","","1","exp","400","2","0","IC","v","true"
"html-keyboard-response","991","122580","0.0-16.0-2.0","","null","<p> CORRECT </p>","null","","","","","","","","","",""
"fixation-image-keyboard-release-original","992","124029","0.0-17.0-1.0","","447.53500004298985","Stim/Stim-BG/NI_M.PNG","66","","","1","exp","700","1","1","IC","b","true"
"html-keyboard-response","993","125140","0.0-17.0-2.0","","null","<p> CORRECT </p>","null","","","","","","","","","",""
"call-function","994","125141","0.0-18.0","","","","","","","","","","","","","",""
"survey-html-form","995","130907","0.0-19.0","","5762.985000037588","","","{""hands"":""Right""}","","","","","","","","",""
"html-keyboard-response","996","136794","0.0-20.0","","5886.0550000099465","If you are using <strong><u>just</u></strong> your <strong></u>right hand</u></strong>, then good job! If not, please do so in the main part of the experiment.<br><br>Press Enter to continue","13","","","","","","","","","",""
"html-keyboard-response","997","147542","0.0-21.0","","10747.749999980442","<div class = 'my_window'><h1>Main Trials</h1><p>Good Job! We will now begin the main trials. In the main trials, you will <strong>not</strong> get feedback. There are 192 trials overall. You will get a self-paced break every 48 trials.</p><p>Instructions Reminder: <p>Before each trial starts, please ensure that you keep the <strong><u>V key</u></strong> and <strong><u>B key</u></strong> depressed with your <strong><u>right index finger</u></strong> on the <strong><u>V key</u></strong> and your <strong><u>right middle finger</u></strong> on the <strong><u>B key</u></strong> (see image below). Responses on this experiment will consist of lifting your <strong><u>right index finger</u></strong> to release the <strong><u>V key</u></strong> if you see the letter <strong><u>I</u></strong> or lifting your <strong><u>right middle finger</u></strong> to release the <strong><u>B key</u></strong> if you see the letter <strong><u>M</u></strong> as fast as you can. It is important that you <strong><u>only use your right hand</u></strong> to do the task.</p><p><img src='keyboard_img.png'></p><p>While you complete this task, there will be a couple of hands moving in the background. Ignore them and focus on the task.</p><p>Remember: this is a reaction time experiment, so please try to respond as fast as possible while at the same time minimizing mistakes.</p><p>Press ENTER to begin.</p></div>","13","","","","","","","","","",""
"call-function","998","147543","0.0-22.0","","","","","","","","","","","","","",""
"fixation-image-keyboard-release-original","1180","149838","0.0-23.0-1.0","","373.189999954775","Stim/Stim-BG/NM_I.PNG","86","","","1","exp","700","2","0","IC","v","true"
"fixation-image-keyboard-release-original","1181","152269","0.0-23.0-1.1","","417.8049999754876","Stim/Stim-BG/NM_M.PNG","66","","","1","exp","400","2","1","C","b","true"
"fixation-image-keyboard-release-original","1182","154780","0.0-23.0-1.2","","493.61500004306436","Stim/Stim-GB/NI_I.PNG","86","","","1","exp","100","1","0","C","v","true"
"fixation-image-keyboard-release-original","1183","157100","0.0-23.0-1.3","","316.274999990128","Stim/Stim-BG/NI_M.PNG","66","","","1","exp","700","1","1","IC","b","true"
"fixation-image-keyboard-release-original","1184","159604","0.0-23.0-1.4","","496.7349999351427","Stim/Stim-GB/NI_I.PNG","86","","","1","exp","700","1","0","C","v","true"
"fixation-image-keyboard-release-original","1185","162010","0.0-23.0-1.5","","375.32999995164573","Stim/Stim-GB/II_I.PNG","86","","","2","exp","100","1","0","C","v","true"
"fixation-image-keyboard-release-original","1186","164453","0.0-23.0-1.6","","416.6099999565631","Stim/Stim-GB/MN_M.PNG","66","","","1","exp","100","2","1","C","b","true"
"fixation-image-keyboard-release-original","1187","166832","0.0-23.0-1.7","","350.0650000059977","Stim/Stim-BG/MN_I.PNG","86","","","1","exp","400","2","0","IC","v","true"
"fixation-image-keyboard-release-original","1188","169258","0.0-23.0-1.8","","399.20500002335757","Stim/Stim-BG/MM_M.PNG","66","","","2","exp","400","2","1","C","b","true"
"fixation-image-keyboard-release-original","1189","171771","0.0-23.0-1.9","","509.6899999771267","Stim/Stim-GB/IN_M.PNG","66","","","1","exp","700","1","1","IC","b","true"
"fixation-image-keyboard-release-original","1190","174177","0.0-23.0-1.10","","402.4649999337271","Stim/Stim-GB/NI_I.PNG","86","","","1","exp","400","1","0","C","v","true"
"fixation-image-keyboard-release-original","1191","176578","0.0-23.0-1.11","","386.20500010438263","Stim/Stim-BG/NI_M.PNG","66","","","1","exp","100","1","1","IC","b","true"
"fixation-image-keyboard-release-original","1192","178942","0.0-23.0-1.12","","336.8949999567121","Stim/Stim-BG/II_I.PNG","86","","","2","exp","700","1","0","C","v","true"
"fixation-image-keyboard-release-original","1193","181355","0.0-23.0-1.13","","397.11000001989305","Stim/Stim-GB/MN_M.PNG","66","","","1","exp","400","2","1","C","b","true"
"fixation-image-keyboard-release-original","1194","183747","0.0-23.0-1.14","","386.229999945499","Stim/Stim-BG/NM_I.PNG","86","","","1","exp","100","2","0","IC","v","true"
"fixation-image-keyboard-release-original","1195","186066","0.0-23.0-1.15","","315.2949999785051","Stim/Stim-GB/II_M.PNG","66","","","2","exp","400","1","1","IC","b","true"
"fixation-image-keyboard-release-original","1196","188646","0.0-23.0-1.16","","561.0750000923872","Stim/Stim-BG/II_M.PNG","66","","","2","exp","700","1","1","IC","b","true"
"fixation-image-keyboard-release-original","1197","190984","0.0-23.0-1.17","","334.33500002138317","Stim/Stim-GB/IN_I.PNG","86","","","1","exp","400","1","0","C","v","true"
"fixation-image-keyboard-release-original","1198","193307","0.0-23.0-1.18","","313.2550000445917","Stim/Stim-GB/MM_M.PNG","66","","","2","exp","700","2","1","C","b","true"
"fixation-image-keyboard-release-original","1199","195780","0.0-23.0-1.19","","463.3649999741465","Stim/Stim-GB/IN_I.PNG","86","","","1","exp","100","1","0","C","v","true"
"fixation-image-keyboard-release-original","1200","198243","0.0-23.0-1.20","","445.2299999538809","Stim/Stim-BG/MM_I.PNG","86","","","2","exp","400","2","0","IC","v","true"
"fixation-image-keyboard-release-original","1201","200639","0.0-23.0-1.21","","390.88999992236495","Stim/Stim-GB/IN_M.PNG","66","","","1","exp","700","1","1","IC","b","true"
"fixation-image-keyboard-release-original","1202","203295","0.0-23.0-1.22","","644.8350000428036","Stim/Stim-BG/MN_I.PNG","86","","","1","exp","700","2","0","IC","v","true"
"fixation-image-keyboard-release-original","1203","205692","0.0-23.0-1.23","","386.73499994911253","Stim/Stim-BG/NI_M.PNG","66","","","1","exp","400","1","1","IC","b","true"
"fixation-image-keyboard-release-original","1204","208110","0.0-23.0-1.24","","413.025000016205","Stim/Stim-GB/MN_M.PNG","66","","","1","exp","700","2","1","C","b","true"
"fixation-image-keyboard-release-original","1205","210540","0.0-23.0-1.25","","412.57499996572733","Stim/Stim-BG/NI_I.PNG","86","","","1","exp","400","1","0","C","v","true"
"fixation-image-keyboard-release-original","1206","212878","0.0-23.0-1.26","","334.6150000579655","Stim/Stim-BG/MM_M.PNG","66","","","2","exp","700","2","1","C","b","true"
"fixation-image-keyboard-release-original","1207","215203","0.0-23.0-1.27","","318.19999997969717","Stim/Stim-BG/MM_I.PNG","86","","","2","exp","100","2","0","IC","v","true"
"fixation-image-keyboard-release-original","1208","217628","0.0-23.0-1.28","","418.91500004567206","Stim/Stim-BG/II_M.PNG","66","","","2","exp","400","1","1","IC","b","true"
"fixation-image-keyboard-release-original","1209","220067","0.0-23.0-1.29","","427.7699999511242","Stim/Stim-GB/MM_M.PNG","66","","","2","exp","100","2","1","C","b","true"
"fixation-image-keyboard-release-original","1210","222433","0.0-23.0-1.30","","357.7449999283999","Stim/Stim-BG/II_I.PNG","86","","","2","exp","700","1","0","C","v","true"
"fixation-image-keyboard-release-original","1211","224780","0.0-23.0-1.31","","334.5049999188632","Stim/Stim-BG/IN_M.PNG","66","","","1","exp","700","1","1","IC","b","true"
"fixation-image-keyboard-release-original","1212","227130","0.0-23.0-1.32","","333.0500000156462","Stim/Stim-GB/IN_I.PNG","86","","","1","exp","100","1","0","C","v","true"
"fixation-image-keyboard-release-original","1213","229572","0.0-23.0-1.33","","426.4549999497831","Stim/Stim-BG/II_I.PNG","86","","","2","exp","100","1","0","C","v","true"
"fixation-image-keyboard-release-original","1214","231970","0.0-23.0-1.34","","380.8849999913946","Stim/Stim-BG/IN_I.PNG","86","","","1","exp","400","1","0","C","v","true"
"fixation-image-keyboard-release-original","1215","234328","0.0-23.0-1.35","","349.5500000426546","Stim/Stim-GB/MM_M.PNG","66","","","2","exp","100","2","1","C","b","true"
"fixation-image-keyboard-release-original","1216","236704","0.0-23.0-1.36","","356.42500000540167","Stim/Stim-BG/MN_M.PNG","86","","","1","exp","100","2","1","C","b","false"
"fixation-image-keyboard-release-original","1217","239107","0.0-23.0-1.37","","377.669999958016","Stim/Stim-BG/NI_M.PNG","66","","","1","exp","100","1","1","IC","b","true"
"fixation-image-keyboard-release-original","1218","241380","0.0-23.0-1.38","","260.950000025332","Stim/Stim-GB/NI_M.PNG","66","","","1","exp","400","1","1","IC","b","true"
"fixation-image-keyboard-release-original","1219","243876","0.0-23.0-1.39","","482.67000005580485","Stim/Stim-BG/NI_I.PNG","86","","","1","exp","400","1","0","C","v","true"
"fixation-image-keyboard-release-original","1220","246335","0.0-23.0-1.40","","445.76000003144145","Stim/Stim-GB/II_M.PNG","66","","","2","exp","100","1","1","IC","b","true"
"fixation-image-keyboard-release-original","1221","248709","0.0-23.0-1.41","","369.9400000041351","Stim/Stim-GB/NI_M.PNG","66","","","1","exp","700","1","1","IC","b","true"
"fixation-image-keyboard-release-original","1222","251101","0.0-23.0-1.42","","375.39000005926937","Stim/Stim-BG/NM_M.PNG","66","","","1","exp","700","2","1","C","b","true"
"fixation-image-keyboard-release-original","1223","253476","0.0-23.0-1.43","","362.75500000920147","Stim/Stim-BG/IN_M.PNG","86","","","1","exp","100","1","1","IC","b","false"
"fixation-image-keyboard-release-original","1224","255957","0.0-23.0-1.44","","471.7149999924004","Stim/Stim-BG/MM_M.PNG","66","","","2","exp","700","2","1","C","b","true"
"fixation-image-keyboard-release-original","1225","258416","0.0-23.0-1.45","","452.5450000073761","Stim/Stim-BG/MM_M.PNG","66","","","2","exp","100","2","1","C","b","true"
"fixation-image-keyboard-release-original","1226","260801","0.0-23.0-1.46","","369.2049999954179","Stim/Stim-BG/MN_M.PNG","66","","","1","exp","100","2","1","C","b","true"
"fixation-image-keyboard-release-original","1227","263212","0.0-23.0-1.47","","392.54500006791204","Stim/Stim-GB/MM_M.PNG","66","","","2","exp","700","2","1","C","b","true"
"html-keyboard-response","1228","274910","0.0-23.0-2.47-0.47","","10687.84000002779","Take a break. Feel free to start again by pressing Enter.","13","","","","","","","","","",""
"fixation-image-keyboard-release-original","1455","277384","0.0-23.0-1.48","","326.9850000506267","Stim/Stim-GB/MN_I.PNG","86","","","1","exp","400","2","0","IC","v","true"
"fixation-image-keyboard-release-original","1456","279797","0.0-23.0-1.49","","401.59000002313405","Stim/Stim-BG/MN_M.PNG","66","","","1","exp","400","2","1","C","b","true"
"fixation-image-keyboard-release-original","1752","283753","0.0-23.0-1.50","","444.8599999304861","Stim/Stim-GB/MN_M.PNG","66","","","1","exp","700","2","1","C","b","true"
"fixation-image-keyboard-release-original","1753","286132","0.0-23.0-1.51","","372.37499991897494","Stim/Stim-BG/IN_I.PNG","86","","","1","exp","400","1","0","C","v","true"
"fixation-image-keyboard-release-original","1754","288519","0.0-23.0-1.52","","373.1150000821799","Stim/Stim-BG/MN_M.PNG","86","","","1","exp","700","2","1","C","b","false"
"fixation-image-keyboard-release-original","1755","291126","0.0-23.0-1.53","","579.3500000145286","Stim/Stim-BG/NI_I.PNG","86","","","1","exp","700","1","0","C","v","true"
"fixation-image-keyboard-release-original","1756","293464","0.0-23.0-1.54","","322.54500000271946","Stim/Stim-GB/II_I.PNG","86","","","2","exp","400","1","0","C","v","true"
"fixation-image-keyboard-release-original","1757","295882","0.0-23.0-1.55","","406.7949999589473","Stim/Stim-GB/MN_I.PNG","86","","","1","exp","700","2","0","IC","v","true"
"fixation-image-keyboard-release-original","1758","298377","0.0-23.0-1.56","","482.61000006459653","Stim/Stim-BG/MM_M.PNG","66","","","2","exp","100","2","1","C","b","true"
"fixation-image-keyboard-release-original","1759","300895","0.0-23.0-1.57","","500.6049999501556","Stim/Stim-GB/MM_M.PNG","66","","","2","exp","700","2","1","C","b","true"
"fixation-image-keyboard-release-original","1760","303280","0.0-23.0-1.58","","371.29499996080995","Stim/Stim-BG/II_M.PNG","66","","","2","exp","400","1","1","IC","b","true"
"fixation-image-keyboard-release-original","1761","305654","0.0-23.0-1.59","","359.4900000607595","Stim/Stim-GB/NM_M.PNG","66","","","1","exp","700","2","1","C","b","true"
"fixation-image-keyboard-release-original","1762","307984","0.0-23.0-1.60","","320.70000004023314","Stim/Stim-BG/II_I.PNG","86","","","2","exp","100","1","0","C","v","true"
"fixation-image-keyboard-release-original","1763","310383","0.0-23.0-1.61","","393.3700000634417","Stim/Stim-GB/MM_M.PNG","66","","","2","exp","100","2","1","C","b","true"
"fixation-image-keyboard-release-original","1764","312801","0.0-23.0-1.62","","408.68499991483986","Stim/Stim-GB/MM_M.PNG","66","","","2","exp","400","2","1","C","b","true"
"fixation-image-keyboard-release-original","1765","315327","0.0-23.0-1.63","","502.10499996319413","Stim/Stim-BG/MM_I.PNG","86","","","2","exp","700","2","0","IC","v","true"
"fixation-image-keyboard-release-original","1766","317815","0.0-23.0-1.64","","466.4450000273064","Stim/Stim-GB/II_I.PNG","86","","","2","exp","700","1","0","C","v","true"
"fixation-image-keyboard-release-original","1767","320299","0.0-23.0-1.65","","468.72000000439584","Stim/Stim-BG/MM_I.PNG","86","","","2","exp","700","2","0","IC","v","true"
"fixation-image-keyboard-release-original","1768","322883","0.0-23.0-1.66","","570.6650000065565","Stim/Stim-GB/II_M.PNG","66","","","2","exp","700","1","1","IC","b","true"
"fixation-image-keyboard-release-original","1769","325383","0.0-23.0-1.67","","489.03499997686595","Stim/Stim-BG/MN_I.PNG","86","","","1","exp","100","2","0","IC","v","true"
"fixation-image-keyboard-release-original","1770","327805","0.0-23.0-1.68","","412.7550000557676","Stim/Stim-BG/II_I.PNG","86","","","2","exp","100","1","0","C","v","true"
"fixation-image-keyboard-release-original","1771","330163","0.0-23.0-1.69","","351.8899999326095","Stim/Stim-BG/II_I.PNG","86","","","2","exp","400","1","0","C","v","true"
"fixation-image-keyboard-release-original","1772","332565","0.0-23.0-1.70","","384.3500000657514","Stim/Stim-GB/II_M.PNG","66","","","2","exp","100","1","1","IC","b","true"
"fixation-image-keyboard-release-original","1773","335067","0.0-23.0-1.71","","489.4149999599904","Stim/Stim-BG/IN_M.PNG","66","","","1","exp","100","1","1","IC","b","true"
"fixation-image-keyboard-release-original","1774","337498","0.0-23.0-1.72","","407.4999999720603","Stim/Stim-BG/MM_I.PNG","86","","","2","exp","100","2","0","IC","v","true"
"fixation-image-keyboard-release-original","1775","339987","0.0-23.0-1.73","","479.25499989651144","Stim/Stim-GB/II_I.PNG","86","","","2","exp","700","1","0","C","v","true"
"fixation-image-keyboard-release-original","1776","342528","0.0-23.0-1.74","","515.6550001120195","Stim/Stim-BG/NI_M.PNG","66","","","1","exp","400","1","1","IC","b","true"
"fixation-image-keyboard-release-original","1777","344941","0.0-23.0-1.75","","386.70999999158084","Stim/Stim-GB/NM_M.PNG","66","","","1","exp","400","2","1","C","b","true"
"fixation-image-keyboard-release-original","1778","347291","0.0-23.0-1.76","","335.05499991588295","Stim/Stim-GB/NI_M.PNG","66","","","1","exp","100","1","1","IC","b","true"
"fixation-image-keyboard-release-original","1779","349767","0.0-23.0-1.77","","458.5699999006465","Stim/Stim-BG/MM_I.PNG","86","","","2","exp","400","2","0","IC","v","true"
"fixation-image-keyboard-release-original","1780","352184","0.0-23.0-1.78","","407.9900000942871","Stim/Stim-BG/II_M.PNG","66","","","2","exp","700","1","1","IC","b","true"
"fixation-image-keyboard-release-original","1781","354594","0.0-23.0-1.79","","397.4900000030175","Stim/Stim-BG/MN_I.PNG","86","","","1","exp","400","2","0","IC","v","true"
"fixation-image-keyboard-release-original","1782","357055","0.0-23.0-1.80","","445.03000006079674","Stim/Stim-GB/IN_M.PNG","66","","","1","exp","100","1","1","IC","b","true"
"fixation-image-keyboard-release-original","1783","359442","0.0-23.0-1.81","","378.50500002969056","Stim/Stim-GB/NI_M.PNG","66","","","1","exp","100","1","1","IC","b","true"
"fixation-image-keyboard-release-original","1784","361883","0.0-23.0-1.82","","420.574999996461","Stim/Stim-GB/NM_I.PNG","86","","","1","exp","700","2","0","IC","v","true"
"fixation-image-keyboard-release-original","1785","364257","0.0-23.0-1.83","","358.69499994441867","Stim/Stim-BG/MN_M.PNG","66","","","1","exp","400","2","1","C","b","true"
"fixation-image-keyboard-release-original","1786","366633","0.0-23.0-1.84","","359.00000005494803","Stim/Stim-BG/NM_I.PNG","86","","","1","exp","400","2","0","IC","v","true"
"fixation-image-keyboard-release-original","1787","369027","0.0-23.0-1.85","","383.1149999750778","Stim/Stim-BG/MM_I.PNG","86","","","2","exp","400","2","0","IC","v","true"
"fixation-image-keyboard-release-original","1788","371400","0.0-23.0-1.86","","344.4850000087172","Stim/Stim-GB/NM_M.PNG","66","","","1","exp","400","2","1","C","b","true"
"fixation-image-keyboard-release-original","1789","373941","0.0-23.0-1.87","","531.8950000219047","Stim/Stim-BG/NM_I.PNG","86","","","1","exp","100","2","0","IC","v","true"
"fixation-image-keyboard-release-original","1790","376313","0.0-23.0-1.88","","357.9949999693781","Stim/Stim-BG/NI_I.PNG","86","","","1","exp","700","1","0","C","v","true"
"fixation-image-keyboard-release-original","1791","378652","0.0-23.0-1.89","","324.4150000391528","Stim/Stim-GB/MM_M.PNG","66","","","2","exp","700","2","1","C","b","true"
"fixation-image-keyboard-release-original","1792","381034","0.0-23.0-1.90","","368.78999997861683","Stim/Stim-GB/NI_M.PNG","66","","","1","exp","400","1","1","IC","b","true"
"fixation-image-keyboard-release-original","1793","383394","0.0-23.0-1.91","","348.3649999834597","Stim/Stim-BG/MM_I.PNG","86","","","2","exp","100","2","0","IC","v","true"
"fixation-image-keyboard-release-original","1794","385768","0.0-23.0-1.92","","356.9200000492856","Stim/Stim-GB/NM_M.PNG","66","","","1","exp","700","2","1","C","b","true"
"fixation-image-keyboard-release-original","1795","388156","0.0-23.0-1.93","","371.4650000911206","Stim/Stim-GB/II_I.PNG","86","","","2","exp","700","1","0","C","v","true"
"fixation-image-keyboard-release-original","1796","390632","0.0-23.0-1.94","","452.65999995172024","Stim/Stim-GB/MM_I.PNG","86","","","2","exp","400","2","0","IC","v","true"
"fixation-image-keyboard-release-original","1797","393012","0.0-23.0-1.95","","369.4899999536574","Stim/Stim-BG/II_M.PNG","66","","","2","exp","400","1","1","IC","b","true"
"html-keyboard-response","1798","396713","0.0-23.0-2.95-0.95","","2693.9199999906123","Take a break. Feel free to start again by pressing Enter.","13","","","","","","","","","",""
"fixation-image-keyboard-release-original","1799","398104","0.0-23.0-1.96","","377.08999996539205","Stim/Stim-BG/II_M.PNG","86","","","2","exp","100","1","1","IC","b","false"
"fixation-image-keyboard-release-original","1800","400470","0.0-23.0-1.97","","354.33000000193715","Stim/Stim-BG/NM_I.PNG","66","","","1","exp","700","2","0","IC","v","false"
"fixation-image-keyboard-release-original","1801","402921","0.0-23.0-1.98","","436.28999998327345","Stim/Stim-GB/IN_M.PNG","66","","","1","exp","400","1","1","IC","b","true"
"fixation-image-keyboard-release-original","1802","405538","0.0-23.0-1.99","","606.5499999094754","Stim/Stim-GB/II_M.PNG","66","","","2","exp","400","1","1","IC","b","true"
"fixation-image-keyboard-release-original","1803","408001","0.0-23.0-1.100","","460.70999989751726","Stim/Stim-BG/MM_I.PNG","86","","","2","exp","700","2","0","IC","v","true"
"fixation-image-keyboard-release-original","1804","410428","0.0-23.0-1.101","","421.70499998610467","Stim/Stim-GB/NM_I.PNG","86","","","1","exp","100","2","0","IC","v","true"
"fixation-image-keyboard-release-original","1805","412910","0.0-23.0-1.102","","468.6800000490621","Stim/Stim-BG/NM_M.PNG","66","","","1","exp","400","2","1","C","b","true"
"fixation-image-keyboard-release-original","1806","415376","0.0-23.0-1.103","","452.9999999795109","Stim/Stim-BG/II_M.PNG","66","","","2","exp","400","1","1","IC","b","true"
"fixation-image-keyboard-release-original","1807","417802","0.0-23.0-1.104","","409.57999997772276","Stim/Stim-BG/IN_M.PNG","66","","","1","exp","700","1","1","IC","b","true"
"fixation-image-keyboard-release-original","1808","420220","0.0-23.0-1.105","","408.6050000041723","Stim/Stim-BG/MM_I.PNG","86","","","2","exp","700","2","0","IC","v","true"
"fixation-image-keyboard-release-original","1809","422625","0.0-23.0-1.106","","394.0500000026077","Stim/Stim-GB/II_M.PNG","66","","","2","exp","700","1","1","IC","b","true"
"fixation-image-keyboard-release-original","1810","424981","0.0-23.0-1.107","","349.3500000331551","Stim/Stim-GB/MM_I.PNG","86","","","2","exp","100","2","0","IC","v","true"
"fixation-image-keyboard-release-original","1811","427389","0.0-23.0-1.108","","399.8349999310449","Stim/Stim-BG/IN_I.PNG","86","","","1","exp","100","1","0","C","v","true"
"fixation-image-keyboard-release-original","1812","429895","0.0-23.0-1.109","","478.49499993026257","Stim/Stim-GB/II_I.PNG","86","","","2","exp","400","1","0","C","v","true"
"fixation-image-keyboard-release-original","1813","432379","0.0-23.0-1.110","","464.1750000882894","Stim/Stim-BG/IN_I.PNG","86","","","1","exp","700","1","0","C","v","true"
"fixation-image-keyboard-release-original","1814","434898","0.0-23.0-1.111","","489.02500001713634","Stim/Stim-BG/MN_I.PNG","86","","","1","exp","100","2","0","IC","v","true"
"fixation-image-keyboard-release-original","1815","437362","0.0-23.0-1.112","","438.9400000218302","Stim/Stim-GB/II_I.PNG","86","","","2","exp","700","1","0","C","v","true"
"fixation-image-keyboard-release-original","1816","439829","0.0-23.0-1.113","","444.8349999729544","Stim/Stim-BG/IN_I.PNG","86","","","1","exp","100","1","0","C","v","true"
"fixation-image-keyboard-release-original","1817","442177","0.0-23.0-1.114","","338.71499996166676","Stim/Stim-GB/MN_M.PNG","66","","","1","exp","400","2","1","C","b","true"
"fixation-image-keyboard-release-original","1818","444633","0.0-23.0-1.115","","438.6650000233203","Stim/Stim-BG/MN_M.PNG","66","","","1","exp","700","2","1","C","b","true"
"fixation-image-keyboard-release-original","1819","447077","0.0-23.0-1.116","","429.59000007249415","Stim/Stim-BG/MN_I.PNG","86","","","1","exp","700","2","0","IC","v","true"
"fixation-image-keyboard-release-original","1820","449545","0.0-23.0-1.117","","462.5099999830127","Stim/Stim-GB/MM_I.PNG","86","","","2","exp","700","2","0","IC","v","true"
"fixation-image-keyboard-release-original","1821","452049","0.0-23.0-1.118","","474.91500002797693","Stim/Stim-GB/IN_M.PNG","66","","","1","exp","400","1","1","IC","b","true"
"fixation-image-keyboard-release-original","1822","454551","0.0-23.0-1.119","","483.73500001616776","Stim/Stim-BG/NM_I.PNG","86","","","1","exp","400","2","0","IC","v","true"
"fixation-image-keyboard-release-original","1823","457073","0.0-23.0-1.120","","508.7999999523163","Stim/Stim-GB/NM_I.PNG","86","","","1","exp","100","2","0","IC","v","true"
"fixation-image-keyboard-release-original","1824","459458","0.0-23.0-1.121","","376.700000022538","Stim/Stim-BG/NM_M.PNG","66","","","1","exp","100","2","1","C","b","true"
"fixation-image-keyboard-release-original","1825","461848","0.0-23.0-1.122","","381.8749999627471","Stim/Stim-GB/MN_I.PNG","86","","","1","exp","400","2","0","IC","v","true"
"fixation-image-keyboard-release-original","1826","464323","0.0-23.0-1.123","","454.22499999403954","Stim/Stim-BG/II_I.PNG","86","","","2","exp","400","1","0","C","v","true"
"fixation-image-keyboard-release-original","1827","466692","0.0-23.0-1.124","","353.67999994196","Stim/Stim-BG/IN_M.PNG","86","","","1","exp","400","1","1","IC","b","false"
"fixation-image-keyboard-release-original","1828","469447","0.0-23.0-1.125","","751.1299999896437","Stim/Stim-GB/NM_I.PNG","86","","","1","exp","700","2","0","IC","v","true"
"fixation-image-keyboard-release-original","1829","471858","0.0-23.0-1.126","","405.50999995321035","Stim/Stim-GB/MN_I.PNG","86","","","1","exp","700","2","0","IC","v","true"
"fixation-image-keyboard-release-original","1830","474368","0.0-23.0-1.127","","496.9349999446422","Stim/Stim-BG/II_M.PNG","66","","","2","exp","700","1","1","IC","b","true"
"fixation-image-keyboard-release-original","1831","476862","0.0-23.0-1.128","","465.7449999358505","Stim/Stim-BG/II_M.PNG","66","","","2","exp","100","1","1","IC","b","true"
"fixation-image-keyboard-release-original","1832","479337","0.0-23.0-1.129","","460.7449999311939","Stim/Stim-GB/IN_M.PNG","66","","","1","exp","100","1","1","IC","b","true"
"fixation-image-keyboard-release-original","1833","481713","0.0-23.0-1.130","","354.6199999982491","Stim/Stim-GB/II_M.PNG","66","","","2","exp","700","1","1","IC","b","true"
"fixation-image-keyboard-release-original","1834","484103","0.0-23.0-1.131","","376.8749999580905","Stim/Stim-BG/II_I.PNG","86","","","2","exp","700","1","0","C","v","true"
"fixation-image-keyboard-release-original","1835","486646","0.0-23.0-1.132","","530.6649999693036","Stim/Stim-GB/II_I.PNG","86","","","2","exp","400","1","0","C","v","true"
"fixation-image-keyboard-release-original","1836","489032","0.0-23.0-1.133","","383.4749999223277","Stim/Stim-BG/NI_I.PNG","86","","","1","exp","100","1","0","C","v","true"
"fixation-image-keyboard-release-original","1837","491512","0.0-23.0-1.134","","462.679999996908","Stim/Stim-GB/MM_I.PNG","86","","","2","exp","400","2","0","IC","v","true"
"fixation-image-keyboard-release-original","1838","493942","0.0-23.0-1.135","","414.72000000067055","Stim/Stim-GB/MN_I.PNG","86","","","1","exp","100","2","0","IC","v","true"
"fixation-image-keyboard-release-original","1839","496443","0.0-23.0-1.136","","475.07499996572733","Stim/Stim-GB/NM_M.PNG","66","","","1","exp","100","2","1","C","b","true"
"fixation-image-keyboard-release-original","1840","498928","0.0-23.0-1.137","","467.6099999342114","Stim/Stim-BG/II_I.PNG","86","","","2","exp","400","1","0","C","v","true"
"fixation-image-keyboard-release-original","1841","501363","0.0-23.0-1.138","","422.6199999684468","Stim/Stim-BG/IN_I.PNG","86","","","1","exp","700","1","0","C","v","true"
"fixation-image-keyboard-release-original","1842","503929","0.0-23.0-1.139","","548.9450000459328","Stim/Stim-GB/II_M.PNG","86","","","2","exp","400","1","1","IC","b","false"
"fixation-image-keyboard-release-original","1843","506462","0.0-23.0-1.140","","505.53000008221716","Stim/Stim-GB/MM_M.PNG","66","","","2","exp","400","2","1","C","b","true"
"fixation-image-keyboard-release-original","1844","508863","0.0-23.0-1.141","","393.6150000663474","Stim/Stim-BG/II_I.PNG","86","","","2","exp","400","1","0","C","v","true"
"fixation-image-keyboard-release-original","1845","511364","0.0-23.0-1.142","","489.41000003833324","Stim/Stim-GB/IN_I.PNG","86","","","1","exp","400","1","0","C","v","true"
"fixation-image-keyboard-release-original","1846","513788","0.0-23.0-1.143","","415.0349999545142","Stim/Stim-GB/NM_I.PNG","86","","","1","exp","400","2","0","IC","v","true"
"html-keyboard-response","1847","530071","0.0-23.0-2.143-0.143","","15269.775000051595","Take a break. Feel free to start again by pressing Enter.","13","","","","","","","","","",""
"fixation-image-keyboard-release-original","1848","531510","0.0-23.0-1.144","","423.35499997716397","Stim/Stim-GB/MM_I.PNG","86","","","2","exp","700","2","0","IC","v","true"
"fixation-image-keyboard-release-original","1849","534005","0.0-23.0-1.145","","487.859999993816","Stim/Stim-GB/II_I.PNG","86","","","2","exp","400","1","0","C","v","true"
"fixation-image-keyboard-release-original","1894","536601","0.0-23.0-1.146","","366.4100000169128","Stim/Stim-GB/MN_I.PNG","86","","","1","exp","100","2","0","IC","v","true"
"fixation-image-keyboard-release-original","1895","539001","0.0-23.0-1.147","","382.5049999868497","Stim/Stim-GB/NI_M.PNG","66","","","1","exp","700","1","1","IC","b","true"
"fixation-image-keyboard-release-original","1896","541413","0.0-23.0-1.148","","407.4050000635907","Stim/Stim-GB/MM_M.PNG","66","","","2","exp","400","2","1","C","b","true"
"fixation-image-keyboard-release-original","1897","544008","0.0-23.0-1.149","","574.3650000076741","Stim/Stim-BG/II_M.PNG","66","","","2","exp","700","1","1","IC","b","true"
"fixation-image-keyboard-release-original","1898","546431","0.0-23.0-1.150","","418.8949998933822","Stim/Stim-GB/MM_M.PNG","66","","","2","exp","100","2","1","C","b","true"
"fixation-image-keyboard-release-original","1899","548903","0.0-23.0-1.151","","457.87500008009374","Stim/Stim-GB/MM_I.PNG","86","","","2","exp","100","2","0","IC","v","true"
"fixation-image-keyboard-release-original","1900","551229","0.0-23.0-1.152","","322.5150000071153","Stim/Stim-BG/NI_M.PNG","66","","","1","exp","700","1","1","IC","b","true"
"fixation-image-keyboard-release-original","1901","553728","0.0-23.0-1.153","","480.8999999659136","Stim/Stim-GB/NI_I.PNG","86","","","1","exp","700","1","0","C","v","true"
"fixation-image-keyboard-release-original","1902","556169","0.0-23.0-1.154","","423.26999991200864","Stim/Stim-GB/II_M.PNG","66","","","2","exp","400","1","1","IC","b","true"
"fixation-image-keyboard-release-original","1903","558552","0.0-23.0-1.155","","366.61499994806945","Stim/Stim-BG/MM_M.PNG","66","","","2","exp","400","2","1","C","b","true"
"fixation-image-keyboard-release-original","1904","561081","0.0-23.0-1.156","","524.7850000159815","Stim/Stim-BG/IN_M.PNG","66","","","1","exp","400","1","1","IC","b","true"
"fixation-image-keyboard-release-original","1905","563547","0.0-23.0-1.157","","462.2299999464303","Stim/Stim-BG/II_I.PNG","86","","","2","exp","100","1","0","C","v","true"
"fixation-image-keyboard-release-original","1906","566121","0.0-23.0-1.158","","567.5300000002608","Stim/Stim-BG/II_M.PNG","66","","","2","exp","100","1","1","IC","b","true"
"fixation-image-keyboard-release-original","1907","568599","0.0-23.0-1.159","","466.4049999555573","Stim/Stim-GB/II_M.PNG","66","","","2","exp","100","1","1","IC","b","true"
"fixation-image-keyboard-release-original","1908","571051","0.0-23.0-1.160","","437.0049999561161","Stim/Stim-GB/MM_I.PNG","86","","","2","exp","100","2","0","IC","v","true"
"fixation-image-keyboard-release-original","1909","573506","0.0-23.0-1.161","","441.5850000223145","Stim/Stim-BG/MM_M.PNG","66","","","2","exp","400","2","1","C","b","true"
"fixation-image-keyboard-release-original","1910","575933","0.0-23.0-1.162","","420.15499994158745","Stim/Stim-GB/II_I.PNG","86","","","2","exp","100","1","0","C","v","true"
"fixation-image-keyboard-release-original","1911","578351","0.0-23.0-1.163","","404.439999954775","Stim/Stim-GB/MM_M.PNG","66","","","2","exp","400","2","1","C","b","true"
"fixation-image-keyboard-release-original","1912","580750","0.0-23.0-1.164","","383.80499999038875","Stim/Stim-BG/MM_M.PNG","66","","","2","exp","400","2","1","C","b","true"
"fixation-image-keyboard-release-original","1913","583217","0.0-23.0-1.165","","448.12000007368624","Stim/Stim-GB/MM_I.PNG","86","","","2","exp","700","2","0","IC","v","true"
"fixation-image-keyboard-release-original","1914","585718","0.0-23.0-1.166","","483.8400000007823","Stim/Stim-GB/II_M.PNG","66","","","2","exp","700","1","1","IC","b","true"
"fixation-image-keyboard-release-original","1915","588142","0.0-23.0-1.167","","395.3800000017509","Stim/Stim-GB/MM_I.PNG","86","","","2","exp","700","2","0","IC","v","true"
"fixation-image-keyboard-release-original","1916","590517","0.0-23.0-1.168","","367.47499997727573","Stim/Stim-BG/II_M.PNG","66","","","2","exp","100","1","1","IC","b","true"
"fixation-image-keyboard-release-original","1917","592985","0.0-23.0-1.169","","463.71999999973923","Stim/Stim-GB/NM_I.PNG","86","","","1","exp","400","2","0","IC","v","true"
"fixation-image-keyboard-release-original","1918","595379","0.0-23.0-1.170","","375.30499999411404","Stim/Stim-GB/II_M.PNG","66","","","2","exp","100","1","1","IC","b","true"
"fixation-image-keyboard-release-original","1919","597803","0.0-23.0-1.171","","419.89499994087964","Stim/Stim-GB/NI_I.PNG","86","","","1","exp","100","1","0","C","v","true"
"fixation-image-keyboard-release-original","1920","600176","0.0-23.0-1.172","","354.6700000297278","Stim/Stim-GB/NM_M.PNG","66","","","1","exp","100","2","1","C","b","true"
"fixation-image-keyboard-release-original","1921","602585","0.0-23.0-1.173","","394.40500002820045","Stim/Stim-GB/MM_I.PNG","86","","","2","exp","400","2","0","IC","v","true"
"fixation-image-keyboard-release-original","1922","605032","0.0-23.0-1.174","","439.41499991342425","Stim/Stim-BG/II_I.PNG","86","","","2","exp","700","1","0","C","v","true"
"fixation-image-keyboard-release-original","1923","607410","0.0-23.0-1.175","","366.2250000052154","Stim/Stim-GB/MM_I.PNG","86","","","2","exp","100","2","0","IC","v","true"
"fixation-image-keyboard-release-original","1924","609768","0.0-23.0-1.176","","350.5349999759346","Stim/Stim-BG/MM_M.PNG","66","","","2","exp","700","2","1","C","b","true"
"fixation-image-keyboard-release-original","1925","612118","0.0-23.0-1.177","","345.4599999822676","Stim/Stim-GB/MM_I.PNG","86","","","2","exp","400","2","0","IC","v","true"
"fixation-image-keyboard-release-original","1926","614478","0.0-23.0-1.178","","348.1600000523031","Stim/Stim-GB/IN_I.PNG","86","","","1","exp","700","1","0","C","v","true"
"fixation-image-keyboard-release-original","1927","616875","0.0-23.0-1.179","","387.22000003326684","Stim/Stim-BG/MM_I.PNG","86","","","2","exp","400","2","0","IC","v","true"
"fixation-image-keyboard-release-original","1928","619304","0.0-23.0-1.180","","416.87999991700053","Stim/Stim-GB/II_I.PNG","86","","","2","exp","100","1","0","C","v","true"
"fixation-image-keyboard-release-original","1929","621809","0.0-23.0-1.181","","498.5950000118464","Stim/Stim-BG/NM_M.PNG","66","","","1","exp","700","2","1","C","b","true"
"fixation-image-keyboard-release-original","1930","624265","0.0-23.0-1.182","","442.6649999804795","Stim/Stim-BG/MM_M.PNG","66","","","2","exp","700","2","1","C","b","true"
"fixation-image-keyboard-release-original","1931","626663","0.0-23.0-1.183","","389.68499994371086","Stim/Stim-BG/MM_I.PNG","86","","","2","exp","100","2","0","IC","v","true"
"fixation-image-keyboard-release-original","1932","629125","0.0-23.0-1.184","","452.37499999348074","Stim/Stim-GB/II_I.PNG","86","","","2","exp","100","1","0","C","v","true"
"fixation-image-keyboard-release-original","1933","631673","0.0-23.0-1.185","","520.3300000866875","Stim/Stim-BG/MM_M.PNG","66","","","2","exp","100","2","1","C","b","true"
"fixation-image-keyboard-release-original","1934","634062","0.0-23.0-1.186","","383.2150000380352","Stim/Stim-BG/NM_M.PNG","66","","","1","exp","100","2","1","C","b","true"
"fixation-image-keyboard-release-original","1935","636538","0.0-23.0-1.187","","472.96499996446073","Stim/Stim-GB/NI_I.PNG","86","","","1","exp","400","1","0","C","v","true"
"fixation-image-keyboard-release-original","1936","638905","0.0-23.0-1.188","","347.14500000700355","Stim/Stim-BG/MM_M.PNG","66","","","2","exp","100","2","1","C","b","true"
"fixation-image-keyboard-release-original","1937","641394","0.0-23.0-1.189","","482.96499997377396","Stim/Stim-GB/MN_M.PNG","66","","","1","exp","100","2","1","C","b","true"
"fixation-image-keyboard-release-original","1938","643846","0.0-23.0-1.190","","436.74999999348074","Stim/Stim-BG/NI_I.PNG","86","","","1","exp","100","1","0","C","v","true"
"fixation-image-keyboard-release-original","1939","646291","0.0-23.0-1.191","","429.8649999545887","Stim/Stim-GB/IN_I.PNG","86","","","1","exp","700","1","0","C","v","true"
"call-function","1940","647305","0.0-24.0","","","","","","","","","","","","","",""
"survey-html-form","1941","654419","0.0-25.0","","7109.865000005811","","","{""hands2"":""Right""}","","","","","","","","",""
"html-keyboard-response","1942","661342","0.0-26.0","","6923.135000048205","<p><h1>This is the end of the experiment.</h1></p><p>Please <a href='Debrief.pdf' target='_blank'>Click Here</a> (this will open a new window) to read more about the study.</p><p>Press ENTER to end the experiment (you will be sent to Prolific - if something goes wrong, the completion code for this study is: 3F11CBBF).</p>","13","","","","","","","","","",""
