"trial_type","trial_index","time_elapsed","internal_node_id","value","rt","stimulus","key_press","responses","success","hand","test","gap","finger","cue","con","correct_response","correct"
"pavlovia","0","10","0.0-0.0","","","","","","","","","","","","","",""
"call-function","1","12","0.0-1.0","","","","","","","","","","","","","",""
"html-keyboard-response","2","83597","0.0-2.0","","83584.26499999769","<div class = 'my_window'><p><h1>Welcome!</h1><br><p><p>This experiment is adminterested by Carl Michael Galang (McMaster University), Dr. Emiel Cracco (Ghent University), Dr. Marcel Brass (Humboldt University of Berlin), & Dr. Sukhvinder Obhi (McMaster University).</p><p>The purpose of this study is to explore basic perceptual processing mechanisms.</p><p>Information gathered during this study will be written up for publication in an academic journal. While there are no direct benefits to you taking part in this study (other than learning more about the research topic and getting paid on Prolific), the results of this study will provide us with a better understanding of perceptual and sensory processes. To learn about this study, particularly in the terms of any associated risks or harms, how confidentiality and anonymity will be handled, withdrawal procedures, incentives that are promised, how to obtain information about the results, etc., please read the accompanying letter of information - <a href='LOI.pdf' target='_blank'>Click Here</a> (this will open a new window).</p><p>This study should take around 10min to complete.</p><p>If you have questions or need more information about the study itself, please contact me at: galangc@mcmaster.ca. This study has been reviewed by the McMaster University Research Ethics Board and received ethics clearance. If you have concerns or questions about your rights as a participant or about the way the study is conducted, please contact the McMaster Research Ethics Secretariat at ethicsoffice@mcmaster.ca.</p><br><p><h1>CONSENT</h1></p><p>I have read the information presented in the letter of information and I agree to participate in this study.</p><p>By pressing Enter, I consent to the above.<p>","13","","","","","","","","","",""
"survey-html-form","3","96342","0.0-3.0","","12743.335000002844","","","{""1"":""5f8ebaf8ba522904a8eef16d""}","","","","","","","","",""
"fullscreen","4","101685","0.0-4.0","","","","","","true","","","","","","","",""
"call-function","5","101686","0.0-5.0","","","","","","","","","","","","","",""
"html-keyboard-response","6","166421","0.0-6.0","","64733.63999999856","<div class = 'my_window'><h1>Instructions</h1><p>Your task in this experiment is to respond to the letters I or M as they appear on the screen. Unlike most experiments, your task will be to <strong><u>release</u></strong> keys (not push).</p><p>Before each trial starts, please ensure that you keep the <strong><u>V key</u></strong> and <strong><u>B key</u></strong> depressed with your <strong><u>right index finger</u></strong> on the <strong><u>V key</u></strong> and your <strong><u>right middle finger</u></strong> on the <strong><u>B key</u></strong> (see image below). Responses on this experiment will consist of lifting your <strong><u>right index finger</u></strong> to release the <strong><u>V key</u></strong> if you see the letter <strong><u>I</u></strong> or lifting your <strong><u>right middle finger</u></strong> to release the <strong><u>B key</u></strong> if you see the letter <strong><u>M</u></strong> as fast as you can. It is important that you <strong><u>only use your right hand</u></strong> to do the task.</p><p><img src='keyboard_img.png'></p><p>While you complete this task, there will be a couple of hands moving in the background. Ignore them and focus on the task.</p><p>Press ENTER to continue.</p></div>","13","","","","","","","","","",""
"html-keyboard-response","7","177221","0.0-7.0","","10799.310000002151","<div class = 'my_window'><h1>Practice</h1><p>You will first do a practice phase. In the practice phase, you will get feedback on your performance. The practice phase contains 10 trials, but will add an extra trial every time you respond incorrectly.</p><p><p>Before each trial starts, please ensure that you keep the <strong><u>V key</u></strong> and <strong><u>B key</u></strong> depressed with your <strong><u>right index finger</u></strong> on the <strong><u>V key</u></strong> and your <strong><u>right middle finger</u></strong> on the <strong><u>B key</u></strong> (see image below). Responses on this experiment will consist of lifting your <strong><u>right index finger</u></strong> to release the <strong><u>V key</u></strong> if you see the letter <strong><u>I</u></strong> or lifting your <strong><u>right middle finger</u></strong> to release the <strong><u>B key</u></strong> if you see the letter <strong><u>M</u></strong> as fast as you can. It is important that you <strong><u>only use your right hand</u></strong> to do the task.</p><p><img src='keyboard_img.png'></p><p>While you complete this task, there will be a couple of hands moving in the background. Ignore them and focus on the task.</p><p>This is a reaction time experiment, so please try to respond as fast as possible while at the same time minimizing mistakes.</p><p>Press ENTER to begin.</p></div>","13","","","","","","","","","",""
"fixation-image-keyboard-release-original","8","180215","0.0-8.0-1.0","","1989.6050000024843","Stim/Stim-GB/NM_I.PNG","86","","","1","exp","100","2","0","IC","v","true"
"html-keyboard-response","9","181319","0.0-8.0-2.0","","null","<p> CORRECT </p>","null","","","","","","","","","",""
"fixation-image-keyboard-release-original","89","183254","0.0-9.0-1.0","","514.3300000017916","Stim/Stim-GB/MN_M.PNG","66","","","1","exp","700","2","1","C","b","true"
"html-keyboard-response","90","184358","0.0-9.0-2.0","","null","<p> CORRECT </p>","null","","","","","","","","","",""
"fixation-image-keyboard-release-original","91","185924","0.0-10.0-1.0","","563.5349999975006","Stim/Stim-BG/NM_I.PNG","86","","","1","exp","100","2","0","IC","v","true"
"html-keyboard-response","92","187027","0.0-10.0-2.0","","null","<p> CORRECT </p>","null","","","","","","","","","",""
"fixation-image-keyboard-release-original","93","188534","0.0-11.0-1.0","","502.8600000005099","Stim/Stim-GB/MM_I.PNG","86","","","2","exp","400","2","0","IC","v","true"
"html-keyboard-response","94","189636","0.0-11.0-2.0","","null","<p> CORRECT </p>","null","","","","","","","","","",""
"fixation-image-keyboard-release-original","95","191200","0.0-12.0-1.0","","558.0950000003213","Stim/Stim-GB/NM_I.PNG","86","","","1","exp","100","2","0","IC","v","true"
"html-keyboard-response","96","192302","0.0-12.0-2.0","","null","<p> CORRECT </p>","null","","","","","","","","","",""
"fixation-image-keyboard-release-original","97","193870","0.0-13.0-1.0","","563.8749999998254","Stim/Stim-BG/MN_M.PNG","66","","","1","exp","100","2","1","C","b","true"
"html-keyboard-response","98","194972","0.0-13.0-2.0","","null","<p> CORRECT </p>","null","","","","","","","","","",""
"fixation-image-keyboard-release-original","99","196550","0.0-14.0-1.0","","574.014999998326","Stim/Stim-BG/MM_M.PNG","66","","","2","exp","700","2","1","C","b","true"
"html-keyboard-response","100","197652","0.0-14.0-2.0","","null","<p> CORRECT </p>","null","","","","","","","","","",""
"fixation-image-keyboard-release-original","101","199198","0.0-15.0-1.0","","541.8600000011793","Stim/Stim-GB/MM_M.PNG","66","","","2","exp","100","2","1","C","b","true"
"html-keyboard-response","102","200299","0.0-15.0-2.0","","null","<p> CORRECT </p>","null","","","","","","","","","",""
"fixation-image-keyboard-release-original","103","201798","0.0-16.0-1.0","","496.19499999971595","Stim/Stim-GB/MM_M.PNG","66","","","2","exp","100","2","1","C","b","true"
"html-keyboard-response","104","202900","0.0-16.0-2.0","","null","<p> CORRECT </p>","null","","","","","","","","","",""
"fixation-image-keyboard-release-original","105","204342","0.0-17.0-1.0","","438.88499999957276","Stim/Stim-BG/II_M.PNG","66","","","2","exp","100","1","1","IC","b","true"
"html-keyboard-response","106","205444","0.0-17.0-2.0","","null","<p> CORRECT </p>","null","","","","","","","","","",""
"call-function","107","205444","0.0-18.0","","","","","","","","","","","","","",""
"survey-html-form","108","210552","0.0-19.0","","5106.7499999990105","","","{""hands"":""Right""}","","","","","","","","",""
"html-keyboard-response","109","218164","0.0-20.0","","7612.455000002228","If you are using <strong><u>just</u></strong> your <strong></u>right hand</u></strong>, then good job! If not, please do so in the main part of the experiment.<br><br>Press Enter to continue","13","","","","","","","","","",""
"html-keyboard-response","110","236277","0.0-21.0","","18111.79500000071","<div class = 'my_window'><h1>Main Trials</h1><p>Good Job! We will now begin the main trials. In the main trials, you will <strong>not</strong> get feedback. There are 192 trials overall. You will get a self-paced break every 48 trials.</p><p>Instructions Reminder: <p>Before each trial starts, please ensure that you keep the <strong><u>V key</u></strong> and <strong><u>B key</u></strong> depressed with your <strong><u>right index finger</u></strong> on the <strong><u>V key</u></strong> and your <strong><u>right middle finger</u></strong> on the <strong><u>B key</u></strong> (see image below). Responses on this experiment will consist of lifting your <strong><u>right index finger</u></strong> to release the <strong><u>V key</u></strong> if you see the letter <strong><u>I</u></strong> or lifting your <strong><u>right middle finger</u></strong> to release the <strong><u>B key</u></strong> if you see the letter <strong><u>M</u></strong> as fast as you can. It is important that you <strong><u>only use your right hand</u></strong> to do the task.</p><p><img src='keyboard_img.png'></p><p>While you complete this task, there will be a couple of hands moving in the background. Ignore them and focus on the task.</p><p>Remember: this is a reaction time experiment, so please try to respond as fast as possible while at the same time minimizing mistakes.</p><p>Press ENTER to begin.</p></div>","13","","","","","","","","","",""
"call-function","111","236277","0.0-22.0","","","","","","","","","","","","","",""
"fixation-image-keyboard-release-original","112","237822","0.0-23.0-1.0","","541.9050000018615","Stim/Stim-BG/MN_M.PNG","66","","","1","exp","100","2","1","C","b","true"
"fixation-image-keyboard-release-original","113","240310","0.0-23.0-1.1","","483.3599999983562","Stim/Stim-BG/NI_M.PNG","66","","","1","exp","100","1","1","IC","b","true"
"fixation-image-keyboard-release-original","114","242830","0.0-23.0-1.2","","515.6800000004296","Stim/Stim-GB/II_M.PNG","66","","","2","exp","100","1","1","IC","b","true"
"fixation-image-keyboard-release-original","115","245317","0.0-23.0-1.3","","484.96000000159256","Stim/Stim-BG/II_M.PNG","66","","","2","exp","700","1","1","IC","b","true"
"fixation-image-keyboard-release-original","116","247838","0.0-23.0-1.4","","515.4099999999744","Stim/Stim-GB/MM_I.PNG","86","","","2","exp","100","2","0","IC","v","true"
"fixation-image-keyboard-release-original","117","250341","0.0-23.0-1.5","","501.12499999883585","Stim/Stim-BG/IN_M.PNG","66","","","1","exp","400","1","1","IC","b","true"
"fixation-image-keyboard-release-original","118","252868","0.0-23.0-1.6","","523.7949999973644","Stim/Stim-BG/NM_I.PNG","86","","","1","exp","400","2","0","IC","v","true"
"fixation-image-keyboard-release-original","119","255334","0.0-23.0-1.7","","461.38499999867054","Stim/Stim-GB/NM_I.PNG","86","","","1","exp","700","2","0","IC","v","true"
"fixation-image-keyboard-release-original","120","257710","0.0-23.0-1.8","","371.46999999822583","Stim/Stim-GB/MM_M.PNG","66","","","2","exp","400","2","1","C","b","true"
"fixation-image-keyboard-release-original","121","260181","0.0-23.0-1.9","","465.46999999921536","Stim/Stim-GB/NM_I.PNG","86","","","1","exp","400","2","0","IC","v","true"
"fixation-image-keyboard-release-original","122","262662","0.0-23.0-1.10","","479.5850000009523","Stim/Stim-GB/NM_I.PNG","86","","","1","exp","100","2","0","IC","v","true"
"fixation-image-keyboard-release-original","123","265037","0.0-23.0-1.11","","371.5250000022934","Stim/Stim-BG/IN_M.PNG","66","","","1","exp","700","1","1","IC","b","true"
"fixation-image-keyboard-release-original","124","267566","0.0-23.0-1.12","","525.854999999865","Stim/Stim-GB/II_I.PNG","86","","","2","exp","400","1","0","C","v","true"
"fixation-image-keyboard-release-original","125","269990","0.0-23.0-1.13","","419.2849999999744","Stim/Stim-BG/NM_I.PNG","86","","","1","exp","400","2","0","IC","v","true"
"fixation-image-keyboard-release-original","126","272444","0.0-23.0-1.14","","450.4399999968591","Stim/Stim-BG/MM_M.PNG","66","","","2","exp","400","2","1","C","b","true"
"fixation-image-keyboard-release-original","127","274926","0.0-23.0-1.15","","477.4950000028475","Stim/Stim-GB/MM_M.PNG","66","","","2","exp","100","2","1","C","b","true"
"fixation-image-keyboard-release-original","128","277341","0.0-23.0-1.16","","412.00000000029104","Stim/Stim-BG/MM_M.PNG","66","","","2","exp","700","2","1","C","b","true"
"fixation-image-keyboard-release-original","129","279757","0.0-23.0-1.17","","410.63999999820953","Stim/Stim-BG/NM_M.PNG","66","","","1","exp","700","2","1","C","b","true"
"fixation-image-keyboard-release-original","130","282174","0.0-23.0-1.18","","414.9150000012014","Stim/Stim-GB/MM_I.PNG","86","","","2","exp","400","2","0","IC","v","true"
"fixation-image-keyboard-release-original","131","284757","0.0-23.0-1.19","","579.0500000002794","Stim/Stim-BG/IN_M.PNG","66","","","1","exp","400","1","1","IC","b","true"
"fixation-image-keyboard-release-original","132","287164","0.0-23.0-1.20","","403.71500000037486","Stim/Stim-GB/MM_I.PNG","86","","","2","exp","400","2","0","IC","v","true"
"fixation-image-keyboard-release-original","133","289598","0.0-23.0-1.21","","430.6349999969825","Stim/Stim-GB/MM_M.PNG","66","","","2","exp","100","2","1","C","b","true"
"fixation-image-keyboard-release-original","134","292092","0.0-23.0-1.22","","487.6899999981397","Stim/Stim-BG/MN_M.PNG","66","","","1","exp","700","2","1","C","b","true"
"fixation-image-keyboard-release-original","135","294430","0.0-23.0-1.23","","336.28500000119675","Stim/Stim-BG/MM_I.PNG","86","","","2","exp","400","2","0","IC","v","true"
"fixation-image-keyboard-release-original","136","296821","0.0-23.0-1.24","","388.0399999980582","Stim/Stim-BG/IN_M.PNG","66","","","1","exp","700","1","1","IC","b","true"
"fixation-image-keyboard-release-original","137","299276","0.0-23.0-1.25","","451.60000000032596","Stim/Stim-BG/II_I.PNG","86","","","2","exp","400","1","0","C","v","true"
"fixation-image-keyboard-release-original","138","301668","0.0-23.0-1.26","","387.87999999837484","Stim/Stim-GB/IN_M.PNG","66","","","1","exp","700","1","1","IC","b","true"
"fixation-image-keyboard-release-original","139","304158","0.0-23.0-1.27","","485.6499999986845","Stim/Stim-BG/NM_I.PNG","86","","","1","exp","700","2","0","IC","v","true"
"fixation-image-keyboard-release-original","140","306614","0.0-23.0-1.28","","452.31499999860534","Stim/Stim-BG/IN_M.PNG","66","","","1","exp","100","1","1","IC","b","true"
"fixation-image-keyboard-release-original","141","309078","0.0-23.0-1.29","","460.53000000026077","Stim/Stim-GB/MN_M.PNG","66","","","1","exp","100","2","1","C","b","true"
"fixation-image-keyboard-release-original","142","311534","0.0-23.0-1.30","","452.385000000475","Stim/Stim-BG/MM_I.PNG","86","","","2","exp","400","2","0","IC","v","true"
"fixation-image-keyboard-release-original","143","313974","0.0-23.0-1.31","","435.23999999894295","Stim/Stim-GB/II_M.PNG","66","","","2","exp","400","1","1","IC","b","true"
"fixation-image-keyboard-release-original","144","316494","0.0-23.0-1.32","","514.7899999974179","Stim/Stim-BG/II_I.PNG","86","","","2","exp","100","1","0","C","v","true"
"fixation-image-keyboard-release-original","145","319014","0.0-23.0-1.33","","516.4149999982328","Stim/Stim-BG/II_I.PNG","86","","","2","exp","400","1","0","C","v","true"
"fixation-image-keyboard-release-original","146","321438","0.0-23.0-1.34","","420.239999999525","Stim/Stim-BG/II_M.PNG","66","","","2","exp","400","1","1","IC","b","true"
"fixation-image-keyboard-release-original","147","323869","0.0-23.0-1.35","","427.83999999664957","Stim/Stim-BG/NM_M.PNG","66","","","1","exp","400","2","1","C","b","true"
"fixation-image-keyboard-release-original","148","326286","0.0-23.0-1.36","","411.86999999993714","Stim/Stim-BG/MM_I.PNG","86","","","2","exp","100","2","0","IC","v","true"
"fixation-image-keyboard-release-original","149","328742","0.0-23.0-1.37","","450.6699999982957","Stim/Stim-GB/IN_I.PNG","86","","","1","exp","700","1","0","C","v","true"
"fixation-image-keyboard-release-original","150","331142","0.0-23.0-1.38","","396.2900000005611","Stim/Stim-BG/NM_M.PNG","66","","","1","exp","700","2","1","C","b","true"
"fixation-image-keyboard-release-original","151","333510","0.0-23.0-1.39","","364.71999999776017","Stim/Stim-BG/MM_I.PNG","86","","","2","exp","400","2","0","IC","v","true"
"fixation-image-keyboard-release-original","152","335973","0.0-23.0-1.40","","458.585000000312","Stim/Stim-GB/MN_M.PNG","66","","","1","exp","100","2","1","C","b","true"
"fixation-image-keyboard-release-original","153","338446","0.0-23.0-1.41","","469.51500000071246","Stim/Stim-GB/II_M.PNG","66","","","2","exp","700","1","1","IC","b","true"
"fixation-image-keyboard-release-original","154","340966","0.0-23.0-1.42","","516.410000000149","Stim/Stim-GB/MM_M.PNG","86","","","2","exp","400","2","1","C","b","false"
"fixation-image-keyboard-release-original","155","343470","0.0-23.0-1.43","","499.1599999993923","Stim/Stim-GB/MN_I.PNG","86","","","1","exp","100","2","0","IC","v","true"
"fixation-image-keyboard-release-original","156","345966","0.0-23.0-1.44","","491.5849999997299","Stim/Stim-BG/II_M.PNG","66","","","2","exp","400","1","1","IC","b","true"
"fixation-image-keyboard-release-original","157","348462","0.0-23.0-1.45","","492.2699999988545","Stim/Stim-BG/II_I.PNG","86","","","2","exp","700","1","0","C","v","true"
"fixation-image-keyboard-release-original","158","350974","0.0-23.0-1.46","","507.6500000032247","Stim/Stim-GB/II_I.PNG","86","","","2","exp","400","1","0","C","v","true"
"fixation-image-keyboard-release-original","159","353492","0.0-23.0-1.47","","514.5999999985797","Stim/Stim-BG/MM_I.PNG","86","","","2","exp","700","2","0","IC","v","true"
"html-keyboard-response","160","363957","0.0-23.0-2.47-0.47","","9463.765000000363","Take a break. Feel free to start again by pressing Enter.","13","","","","","","","","","",""
"fixation-image-keyboard-release-original","161","365398","0.0-23.0-1.48","","438.26500000065425","Stim/Stim-GB/II_I.PNG","86","","","2","exp","400","1","0","C","v","true"
"fixation-image-keyboard-release-original","162","367885","0.0-23.0-1.49","","484.04999999911524","Stim/Stim-BG/MM_I.PNG","86","","","2","exp","400","2","0","IC","v","true"
"fixation-image-keyboard-release-original","163","370309","0.0-23.0-1.50","","419.52500000112923","Stim/Stim-GB/MN_I.PNG","86","","","1","exp","100","2","0","IC","v","true"
"fixation-image-keyboard-release-original","164","372821","0.0-23.0-1.51","","507.9599999990314","Stim/Stim-GB/MM_I.PNG","86","","","2","exp","700","2","0","IC","v","true"
"fixation-image-keyboard-release-original","165","375254","0.0-23.0-1.52","","428.41000000049826","Stim/Stim-GB/NM_I.PNG","86","","","1","exp","700","2","0","IC","v","true"
"fixation-image-keyboard-release-original","166","377717","0.0-23.0-1.53","","460.62499999970896","Stim/Stim-BG/MN_I.PNG","86","","","1","exp","100","2","0","IC","v","true"
"fixation-image-keyboard-release-original","167","380132","0.0-23.0-1.54","","411.3649999999325","Stim/Stim-GB/MN_I.PNG","86","","","1","exp","700","2","0","IC","v","true"
"fixation-image-keyboard-release-original","168","382526","0.0-23.0-1.55","","390.0649999995949","Stim/Stim-GB/NI_M.PNG","66","","","1","exp","400","1","1","IC","b","true"
"fixation-image-keyboard-release-original","169","384997","0.0-23.0-1.56","","467.40499999938766","Stim/Stim-BG/MM_I.PNG","86","","","2","exp","100","2","0","IC","v","true"
"fixation-image-keyboard-release-original","170","387420","0.0-23.0-1.57","","417.3899999986752","Stim/Stim-GB/II_I.PNG","86","","","2","exp","100","1","0","C","v","true"
"fixation-image-keyboard-release-original","171","389845","0.0-23.0-1.58","","421.77000000083353","Stim/Stim-BG/II_M.PNG","66","","","2","exp","100","1","1","IC","b","true"
"fixation-image-keyboard-release-original","172","392214","0.0-23.0-1.59","","364.86499999958323","Stim/Stim-BG/IN_I.PNG","86","","","1","exp","100","1","0","C","v","true"
"fixation-image-keyboard-release-original","173","394710","0.0-23.0-1.60","","491.17499999917345","Stim/Stim-BG/II_M.PNG","66","","","2","exp","400","1","1","IC","b","true"
"fixation-image-keyboard-release-original","174","397188","0.0-23.0-1.61","","474.62999999697786","Stim/Stim-BG/MM_M.PNG","66","","","2","exp","100","2","1","C","b","true"
"fixation-image-keyboard-release-original","175","399677","0.0-23.0-1.62","","484.35000000242144","Stim/Stim-BG/II_M.PNG","66","","","2","exp","100","1","1","IC","b","true"
"fixation-image-keyboard-release-original","176","402093","0.0-23.0-1.63","","413.2900000003865","Stim/Stim-BG/II_I.PNG","86","","","2","exp","400","1","0","C","v","true"
"fixation-image-keyboard-release-original","177","404589","0.0-23.0-1.64","","490.8450000002049","Stim/Stim-GB/NM_I.PNG","86","","","1","exp","400","2","0","IC","v","true"
"fixation-image-keyboard-release-original","178","407086","0.0-23.0-1.65","","491.97499999718275","Stim/Stim-BG/MM_I.PNG","86","","","2","exp","100","2","0","IC","v","true"
"fixation-image-keyboard-release-original","179","409493","0.0-23.0-1.66","","403.0650000022724","Stim/Stim-GB/II_M.PNG","66","","","2","exp","400","1","1","IC","b","true"
"fixation-image-keyboard-release-original","180","411957","0.0-23.0-1.67","","460.49000000127126","Stim/Stim-GB/MM_I.PNG","86","","","2","exp","400","2","0","IC","v","true"
"fixation-image-keyboard-release-original","181","414389","0.0-23.0-1.68","","428.14000000001397","Stim/Stim-BG/MN_I.PNG","86","","","1","exp","700","2","0","IC","v","true"
"fixation-image-keyboard-release-original","182","416837","0.0-23.0-1.69","","444.78499999968335","Stim/Stim-GB/IN_I.PNG","66","","","1","exp","400","1","0","C","v","false"
"fixation-image-keyboard-release-original","183","419270","0.0-23.0-1.70","","428.7899999980582","Stim/Stim-BG/MM_M.PNG","66","","","2","exp","400","2","1","C","b","true"
"fixation-image-keyboard-release-original","184","421725","0.0-23.0-1.71","","449.6849999995902","Stim/Stim-BG/NI_I.PNG","86","","","1","exp","100","1","0","C","v","true"
"fixation-image-keyboard-release-original","185","424261","0.0-23.0-1.72","","530.8100000001723","Stim/Stim-BG/NM_M.PNG","66","","","1","exp","100","2","1","C","b","true"
"fixation-image-keyboard-release-original","186","426758","0.0-23.0-1.73","","491.39499999728287","Stim/Stim-GB/NM_M.PNG","66","","","1","exp","100","2","1","C","b","true"
"fixation-image-keyboard-release-original","187","429262","0.0-23.0-1.74","","501.1500000000233","Stim/Stim-GB/NI_I.PNG","66","","","1","exp","100","1","0","C","v","false"
"fixation-image-keyboard-release-original","188","431684","0.0-23.0-1.75","","416.4500000006519","Stim/Stim-GB/II_I.PNG","86","","","2","exp","700","1","0","C","v","true"
"fixation-image-keyboard-release-original","189","434174","0.0-23.0-1.76","","486.20500000106404","Stim/Stim-GB/IN_I.PNG","86","","","1","exp","100","1","0","C","v","true"
"fixation-image-keyboard-release-original","190","436606","0.0-23.0-1.77","","428.8300000007148","Stim/Stim-BG/NM_I.PNG","86","","","1","exp","700","2","0","IC","v","true"
"fixation-image-keyboard-release-original","191","439054","0.0-23.0-1.78","","444.21499999955995","Stim/Stim-BG/IN_I.PNG","86","","","1","exp","400","1","0","C","v","true"
"fixation-image-keyboard-release-original","192","441606","0.0-23.0-1.79","","546.8650000002235","Stim/Stim-GB/IN_M.PNG","66","","","1","exp","100","1","1","IC","b","true"
"fixation-image-keyboard-release-original","193","444086","0.0-23.0-1.80","","477.2850000008475","Stim/Stim-BG/MN_M.PNG","66","","","1","exp","700","2","1","C","b","true"
"fixation-image-keyboard-release-original","194","446548","0.0-23.0-1.81","","458.4450000002398","Stim/Stim-GB/II_I.PNG","86","","","2","exp","100","1","0","C","v","true"
"fixation-image-keyboard-release-original","195","449077","0.0-23.0-1.82","","526.0749999979744","Stim/Stim-GB/II_M.PNG","66","","","2","exp","400","1","1","IC","b","true"
"fixation-image-keyboard-release-original","196","451542","0.0-23.0-1.83","","459.3349999995553","Stim/Stim-BG/MM_I.PNG","86","","","2","exp","700","2","0","IC","v","true"
"fixation-image-keyboard-release-original","197","454110","0.0-23.0-1.84","","564.0850000018254","Stim/Stim-GB/IN_M.PNG","66","","","1","exp","400","1","1","IC","b","true"
"fixation-image-keyboard-release-original","198","456644","0.0-23.0-1.85","","532.1150000018533","Stim/Stim-GB/II_M.PNG","66","","","2","exp","100","1","1","IC","b","true"
"fixation-image-keyboard-release-original","199","459094","0.0-23.0-1.86","","445.12500000197906","Stim/Stim-BG/IN_I.PNG","86","","","1","exp","700","1","0","C","v","true"
"fixation-image-keyboard-release-original","200","461534","0.0-23.0-1.87","","435.4200000016135","Stim/Stim-BG/NI_M.PNG","66","","","1","exp","100","1","1","IC","b","true"
"fixation-image-keyboard-release-original","201","464038","0.0-23.0-1.88","","499.48500000027707","Stim/Stim-GB/MM_M.PNG","66","","","2","exp","700","2","1","C","b","true"
"fixation-image-keyboard-release-original","202","466574","0.0-23.0-1.89","","531.490000001213","Stim/Stim-BG/NI_I.PNG","86","","","1","exp","700","1","0","C","v","true"
"fixation-image-keyboard-release-original","203","469316","0.0-23.0-1.90","","737.7899999992223","Stim/Stim-GB/IN_M.PNG","66","","","1","exp","100","1","1","IC","b","true"
"fixation-image-keyboard-release-original","204","471790","0.0-23.0-1.91","","469.51000000262866","Stim/Stim-BG/MM_I.PNG","86","","","2","exp","100","2","0","IC","v","true"
"fixation-image-keyboard-release-original","205","474390","0.0-23.0-1.92","","595.7300000009127","Stim/Stim-BG/IN_M.PNG","66","","","1","exp","100","1","1","IC","b","true"
"fixation-image-keyboard-release-original","206","476926","0.0-23.0-1.93","","532.6649999988731","Stim/Stim-GB/MM_M.PNG","66","","","2","exp","700","2","1","C","b","true"
"fixation-image-keyboard-release-original","207","479366","0.0-23.0-1.94","","436.86000000161584","Stim/Stim-BG/MN_I.PNG","86","","","1","exp","400","2","0","IC","v","true"
"fixation-image-keyboard-release-original","208","481894","0.0-23.0-1.95","","522.9999999973807","Stim/Stim-GB/MN_M.PNG","66","","","1","exp","700","2","1","C","b","true"
"html-keyboard-response","209","488340","0.0-23.0-2.95-0.95","","5444.535000002361","Take a break. Feel free to start again by pressing Enter.","13","","","","","","","","","",""
"fixation-image-keyboard-release-original","210","489854","0.0-23.0-1.96","","510.72999999817694","Stim/Stim-GB/NM_M.PNG","66","","","1","exp","700","2","1","C","b","true"
"fixation-image-keyboard-release-original","211","492381","0.0-23.0-1.97","","522.9250000011525","Stim/Stim-BG/NI_M.PNG","66","","","1","exp","400","1","1","IC","b","true"
"fixation-image-keyboard-release-original","212","494910","0.0-23.0-1.98","","525.1549999993877","Stim/Stim-BG/NI_M.PNG","66","","","1","exp","700","1","1","IC","b","true"
"fixation-image-keyboard-release-original","213","497294","0.0-23.0-1.99","","381.13499999960186","Stim/Stim-GB/NI_I.PNG","86","","","1","exp","700","1","0","C","v","true"
"fixation-image-keyboard-release-original","214","499838","0.0-23.0-1.100","","539.1700000000419","Stim/Stim-BG/NM_I.PNG","86","","","1","exp","100","2","0","IC","v","true"
"fixation-image-keyboard-release-original","215","502324","0.0-23.0-1.101","","483.6500000018859","Stim/Stim-GB/II_M.PNG","66","","","2","exp","100","1","1","IC","b","true"
"fixation-image-keyboard-release-original","216","504846","0.0-23.0-1.102","","517.8699999997043","Stim/Stim-BG/NI_M.PNG","66","","","1","exp","700","1","1","IC","b","true"
"fixation-image-keyboard-release-original","217","507397","0.0-23.0-1.103","","547.1900000011083","Stim/Stim-BG/NM_M.PNG","66","","","1","exp","100","2","1","C","b","true"
"fixation-image-keyboard-release-original","218","509910","0.0-23.0-1.104","","508.65999999956694","Stim/Stim-BG/MM_I.PNG","86","","","2","exp","700","2","0","IC","v","true"
"fixation-image-keyboard-release-original","219","512326","0.0-23.0-1.105","","412.43499999830965","Stim/Stim-BG/NM_M.PNG","66","","","1","exp","400","2","1","C","b","true"
"fixation-image-keyboard-release-original","220","514733","0.0-23.0-1.106","","403.0400000009686","Stim/Stim-GB/MN_I.PNG","86","","","1","exp","400","2","0","IC","v","true"
"fixation-image-keyboard-release-original","221","517302","0.0-23.0-1.107","","566.5950000002049","Stim/Stim-GB/MM_I.PNG","86","","","2","exp","700","2","0","IC","v","true"
"fixation-image-keyboard-release-original","222","519804","0.0-23.0-1.108","","497.42999999935273","Stim/Stim-GB/MM_M.PNG","66","","","2","exp","100","2","1","C","b","true"
"fixation-image-keyboard-release-original","223","522238","0.0-23.0-1.109","","430.43500000215136","Stim/Stim-BG/IN_I.PNG","86","","","1","exp","700","1","0","C","v","true"
"fixation-image-keyboard-release-original","224","524734","0.0-23.0-1.110","","491.6250000024447","Stim/Stim-GB/IN_I.PNG","86","","","1","exp","400","1","0","C","v","true"
"fixation-image-keyboard-release-original","225","527294","0.0-23.0-1.111","","556.0949999998556","Stim/Stim-GB/II_M.PNG","66","","","2","exp","400","1","1","IC","b","true"
"fixation-image-keyboard-release-original","226","529830","0.0-23.0-1.112","","532.3349999998463","Stim/Stim-BG/MM_M.PNG","66","","","2","exp","100","2","1","C","b","true"
"fixation-image-keyboard-release-original","227","532428","0.0-23.0-1.113","","594.515000000596","Stim/Stim-BG/MM_M.PNG","66","","","2","exp","400","2","1","C","b","true"
"fixation-image-keyboard-release-original","228","534989","0.0-23.0-1.114","","557.3899999981513","Stim/Stim-GB/II_M.PNG","66","","","2","exp","700","1","1","IC","b","true"
"fixation-image-keyboard-release-original","229","537534","0.0-23.0-1.115","","539.2649999994319","Stim/Stim-GB/NI_I.PNG","86","","","1","exp","400","1","0","C","v","true"
"fixation-image-keyboard-release-original","230","540029","0.0-23.0-1.116","","490.06500000180677","Stim/Stim-BG/MN_I.PNG","86","","","1","exp","100","2","0","IC","v","true"
"fixation-image-keyboard-release-original","231","542500","0.0-23.0-1.117","","467.59000000020023","Stim/Stim-BG/II_M.PNG","66","","","2","exp","700","1","1","IC","b","true"
"fixation-image-keyboard-release-original","232","544974","0.0-23.0-1.118","","470.0249999987427","Stim/Stim-BG/NI_I.PNG","86","","","1","exp","700","1","0","C","v","true"
"fixation-image-keyboard-release-original","233","547453","0.0-23.0-1.119","","476.2850000006147","Stim/Stim-GB/NM_M.PNG","66","","","1","exp","700","2","1","C","b","true"
"fixation-image-keyboard-release-original","234","549950","0.0-23.0-1.120","","492.59499999973923","Stim/Stim-GB/NI_M.PNG","66","","","1","exp","700","1","1","IC","b","true"
"fixation-image-keyboard-release-original","235","552372","0.0-23.0-1.121","","419.25999999872874","Stim/Stim-GB/IN_I.PNG","86","","","1","exp","700","1","0","C","v","true"
"fixation-image-keyboard-release-original","236","554909","0.0-23.0-1.122","","533.3949999986216","Stim/Stim-GB/MM_M.PNG","66","","","2","exp","100","2","1","C","b","true"
"fixation-image-keyboard-release-original","237","557317","0.0-23.0-1.123","","405.7700000011828","Stim/Stim-BG/MN_I.PNG","86","","","1","exp","400","2","0","IC","v","true"
"fixation-image-keyboard-release-original","238","559797","0.0-23.0-1.124","","475.81999999959953","Stim/Stim-GB/II_I.PNG","86","","","2","exp","700","1","0","C","v","true"
"fixation-image-keyboard-release-original","239","562182","0.0-23.0-1.125","","380.5049999974435","Stim/Stim-GB/NM_M.PNG","66","","","1","exp","400","2","1","C","b","true"
"fixation-image-keyboard-release-original","240","564574","0.0-23.0-1.126","","389.035000000149","Stim/Stim-BG/IN_I.PNG","86","","","1","exp","100","1","0","C","v","true"
"fixation-image-keyboard-release-original","241","567110","0.0-23.0-1.127","","532.4199999995762","Stim/Stim-GB/MM_M.PNG","66","","","2","exp","700","2","1","C","b","true"
"fixation-image-keyboard-release-original","242","569532","0.0-23.0-1.128","","418.42000000178814","Stim/Stim-GB/MM_I.PNG","86","","","2","exp","700","2","0","IC","v","true"
"fixation-image-keyboard-release-original","243","572014","0.0-23.0-1.129","","478.09500000218395","Stim/Stim-BG/II_I.PNG","86","","","2","exp","100","1","0","C","v","true"
"fixation-image-keyboard-release-original","244","574534","0.0-23.0-1.130","","515.2549999984913","Stim/Stim-BG/NI_I.PNG","86","","","1","exp","400","1","0","C","v","true"
"fixation-image-keyboard-release-original","245","576990","0.0-23.0-1.131","","451.52500000037253","Stim/Stim-GB/NM_M.PNG","66","","","1","exp","100","2","1","C","b","true"
"fixation-image-keyboard-release-original","246","579454","0.0-23.0-1.132","","461.6299999980256","Stim/Stim-GB/NI_M.PNG","66","","","1","exp","400","1","1","IC","b","true"
"fixation-image-keyboard-release-original","247","581982","0.0-23.0-1.133","","523.0200000006007","Stim/Stim-BG/MM_M.PNG","66","","","2","exp","400","2","1","C","b","true"
"fixation-image-keyboard-release-original","248","584334","0.0-23.0-1.134","","348.30499999946915","Stim/Stim-BG/IN_I.PNG","86","","","1","exp","400","1","0","C","v","true"
"fixation-image-keyboard-release-original","249","586718","0.0-23.0-1.135","","378.5200000021141","Stim/Stim-GB/MM_M.PNG","66","","","2","exp","400","2","1","C","b","true"
"fixation-image-keyboard-release-original","250","589148","0.0-23.0-1.136","","427.22499999939464","Stim/Stim-GB/II_I.PNG","86","","","2","exp","100","1","0","C","v","true"
"fixation-image-keyboard-release-original","251","591558","0.0-23.0-1.137","","404.2300000000978","Stim/Stim-GB/MM_M.PNG","66","","","2","exp","700","2","1","C","b","true"
"fixation-image-keyboard-release-original","252","594084","0.0-23.0-1.138","","522.5399999981746","Stim/Stim-GB/MN_M.PNG","66","","","1","exp","400","2","1","C","b","true"
"fixation-image-keyboard-release-original","253","596486","0.0-23.0-1.139","","397.76999999955297","Stim/Stim-GB/MM_M.PNG","66","","","2","exp","400","2","1","C","b","true"
"fixation-image-keyboard-release-original","254","598926","0.0-23.0-1.140","","435.0849999974016","Stim/Stim-GB/NM_M.PNG","66","","","1","exp","400","2","1","C","b","true"
"fixation-image-keyboard-release-original","255","601382","0.0-23.0-1.141","","452.18000000016764","Stim/Stim-GB/II_M.PNG","66","","","2","exp","700","1","1","IC","b","true"
"fixation-image-keyboard-release-original","256","603800","0.0-23.0-1.142","","413.8149999998277","Stim/Stim-BG/NM_I.PNG","86","","","1","exp","100","2","0","IC","v","true"
"fixation-image-keyboard-release-original","257","606318","0.0-23.0-1.143","","513.3600000008009","Stim/Stim-BG/NI_I.PNG","86","","","1","exp","100","1","0","C","v","true"
"html-keyboard-response","258","612069","0.0-23.0-2.143-0.143","","4748.265000001993","Take a break. Feel free to start again by pressing Enter.","13","","","","","","","","","",""
"fixation-image-keyboard-release-original","259","613502","0.0-23.0-1.144","","430.69499999913387","Stim/Stim-GB/MM_I.PNG","86","","","2","exp","100","2","0","IC","v","true"
"fixation-image-keyboard-release-original","260","615990","0.0-23.0-1.145","","483.42500000225846","Stim/Stim-BG/MM_M.PNG","66","","","2","exp","100","2","1","C","b","true"
"fixation-image-keyboard-release-original","261","618478","0.0-23.0-1.146","","483.5499999971362","Stim/Stim-GB/MN_I.PNG","86","","","1","exp","700","2","0","IC","v","true"
"fixation-image-keyboard-release-original","262","620885","0.0-23.0-1.147","","402.2949999998091","Stim/Stim-GB/II_M.PNG","66","","","2","exp","700","1","1","IC","b","true"
"fixation-image-keyboard-release-original","263","623374","0.0-23.0-1.148","","487.03500000201166","Stim/Stim-BG/MN_M.PNG","66","","","1","exp","100","2","1","C","b","true"
"fixation-image-keyboard-release-original","264","625798","0.0-23.0-1.149","","420.06499999854714","Stim/Stim-GB/NI_I.PNG","86","","","1","exp","100","1","0","C","v","true"
"fixation-image-keyboard-release-original","265","628310","0.0-23.0-1.150","","507.7750000018859","Stim/Stim-GB/II_I.PNG","86","","","2","exp","700","1","0","C","v","true"
"fixation-image-keyboard-release-original","266","630702","0.0-23.0-1.151","","389.33499999996275","Stim/Stim-BG/MN_M.PNG","66","","","1","exp","400","2","1","C","b","true"
"fixation-image-keyboard-release-original","267","633212","0.0-23.0-1.152","","507.63499999803025","Stim/Stim-GB/IN_M.PNG","66","","","1","exp","400","1","1","IC","b","true"
"fixation-image-keyboard-release-original","268","635686","0.0-23.0-1.153","","472.20999999984633","Stim/Stim-BG/MM_M.PNG","66","","","2","exp","700","2","1","C","b","true"
"fixation-image-keyboard-release-original","269","638086","0.0-23.0-1.154","","396.160000000149","Stim/Stim-GB/II_I.PNG","86","","","2","exp","100","1","0","C","v","true"
"fixation-image-keyboard-release-original","270","640566","0.0-23.0-1.155","","476.0549999991199","Stim/Stim-BG/MN_M.PNG","66","","","1","exp","400","2","1","C","b","true"
"fixation-image-keyboard-release-original","271","643030","0.0-23.0-1.156","","459.1599999985192","Stim/Stim-GB/MM_I.PNG","86","","","2","exp","400","2","0","IC","v","true"
"fixation-image-keyboard-release-original","272","645517","0.0-23.0-1.157","","483.5849999981001","Stim/Stim-GB/IN_M.PNG","66","","","1","exp","700","1","1","IC","b","true"
"fixation-image-keyboard-release-original","273","647958","0.0-23.0-1.158","","436.3900000024587","Stim/Stim-GB/MM_I.PNG","86","","","2","exp","700","2","0","IC","v","true"
"fixation-image-keyboard-release-original","274","650430","0.0-23.0-1.159","","467.2649999993155","Stim/Stim-BG/MM_I.PNG","86","","","2","exp","700","2","0","IC","v","true"
"fixation-image-keyboard-release-original","275","652886","0.0-23.0-1.160","","454.7050000000745","Stim/Stim-BG/II_M.PNG","66","","","2","exp","700","1","1","IC","b","true"
"fixation-image-keyboard-release-original","276","655286","0.0-23.0-1.161","","395.01000000012573","Stim/Stim-GB/II_I.PNG","86","","","2","exp","400","1","0","C","v","true"
"fixation-image-keyboard-release-original","277","657798","0.0-23.0-1.162","","507.0850000010105","Stim/Stim-BG/II_M.PNG","66","","","2","exp","100","1","1","IC","b","true"
"fixation-image-keyboard-release-original","278","660286","0.0-23.0-1.163","","484.83500000287313","Stim/Stim-GB/MN_I.PNG","86","","","1","exp","400","2","0","IC","v","true"
"fixation-image-keyboard-release-original","279","662862","0.0-23.0-1.164","","572.789999998291","Stim/Stim-GB/MN_M.PNG","66","","","1","exp","700","2","1","C","b","true"
"fixation-image-keyboard-release-original","280","665350","0.0-23.0-1.165","","483.7100000004284","Stim/Stim-GB/MM_I.PNG","86","","","2","exp","100","2","0","IC","v","true"
"fixation-image-keyboard-release-original","281","667886","0.0-23.0-1.166","","530.9550000020536","Stim/Stim-BG/II_I.PNG","86","","","2","exp","100","1","0","C","v","true"
"fixation-image-keyboard-release-original","282","670454","0.0-23.0-1.167","","562.9499999994878","Stim/Stim-BG/II_I.PNG","86","","","2","exp","700","1","0","C","v","true"
"fixation-image-keyboard-release-original","283","672941","0.0-23.0-1.168","","484.3199999994831","Stim/Stim-BG/II_I.PNG","86","","","2","exp","100","1","0","C","v","true"
"fixation-image-keyboard-release-original","284","675389","0.0-23.0-1.169","","443.37999999686144","Stim/Stim-GB/NI_M.PNG","66","","","1","exp","100","1","1","IC","b","true"
"fixation-image-keyboard-release-original","285","677852","0.0-23.0-1.170","","457.0750000020489","Stim/Stim-BG/MM_M.PNG","66","","","2","exp","700","2","1","C","b","true"
"fixation-image-keyboard-release-original","286","680397","0.0-23.0-1.171","","541.1899999998277","Stim/Stim-BG/II_M.PNG","66","","","2","exp","100","1","1","IC","b","true"
"fixation-image-keyboard-release-original","287","682851","0.0-23.0-1.172","","451.709999997518","Stim/Stim-GB/II_M.PNG","66","","","2","exp","100","1","1","IC","b","true"
"fixation-image-keyboard-release-original","288","685293","0.0-23.0-1.173","","438.0200000014156","Stim/Stim-GB/NI_M.PNG","66","","","1","exp","100","1","1","IC","b","true"
"fixation-image-keyboard-release-original","289","687733","0.0-23.0-1.174","","434.61499999824446","Stim/Stim-GB/II_I.PNG","86","","","2","exp","700","1","0","C","v","true"
"fixation-image-keyboard-release-original","290","690301","0.0-23.0-1.175","","563.1699999977136","Stim/Stim-GB/MN_M.PNG","66","","","1","exp","400","2","1","C","b","true"
"fixation-image-keyboard-release-original","291","692750","0.0-23.0-1.176","","444.87999999907333","Stim/Stim-GB/MM_I.PNG","86","","","2","exp","100","2","0","IC","v","true"
"fixation-image-keyboard-release-original","292","695317","0.0-23.0-1.177","","563.459999997518","Stim/Stim-BG/II_I.PNG","86","","","2","exp","700","1","0","C","v","true"
"fixation-image-keyboard-release-original","293","697948","0.0-23.0-1.178","","625.8400000005495","Stim/Stim-GB/NM_I.PNG","86","","","1","exp","100","2","0","IC","v","true"
"fixation-image-keyboard-release-original","294","700589","0.0-23.0-1.179","","637.8550000007963","Stim/Stim-GB/NI_I.PNG","86","","","1","exp","700","1","0","C","v","true"
"fixation-image-keyboard-release-original","295","703117","0.0-23.0-1.180","","524.5499999983003","Stim/Stim-BG/MM_M.PNG","66","","","2","exp","100","2","1","C","b","true"
"fixation-image-keyboard-release-original","296","705605","0.0-23.0-1.181","","485.15000000048894","Stim/Stim-BG/II_I.PNG","86","","","2","exp","400","1","0","C","v","true"
"fixation-image-keyboard-release-original","297","708061","0.0-23.0-1.182","","450.86000000080094","Stim/Stim-GB/NI_M.PNG","66","","","1","exp","700","1","1","IC","b","true"
"fixation-image-keyboard-release-original","298","710517","0.0-23.0-1.183","","452.6000000005588","Stim/Stim-GB/NI_I.PNG","86","","","1","exp","400","1","0","C","v","true"
"fixation-image-keyboard-release-original","299","713035","0.0-23.0-1.184","","515.864999997546","Stim/Stim-BG/MN_I.PNG","86","","","1","exp","700","2","0","IC","v","true"
"fixation-image-keyboard-release-original","300","715533","0.0-23.0-1.185","","493.24499999778345","Stim/Stim-BG/II_M.PNG","66","","","2","exp","700","1","1","IC","b","true"
"fixation-image-keyboard-release-original","301","718013","0.0-23.0-1.186","","474.44499999983236","Stim/Stim-GB/IN_I.PNG","86","","","1","exp","100","1","0","C","v","true"
"fixation-image-keyboard-release-original","302","720469","0.0-23.0-1.187","","452.2849999994505","Stim/Stim-BG/II_M.PNG","66","","","2","exp","400","1","1","IC","b","true"
"fixation-image-keyboard-release-original","303","722989","0.0-23.0-1.188","","516.7299999993993","Stim/Stim-BG/II_I.PNG","86","","","2","exp","700","1","0","C","v","true"
"fixation-image-keyboard-release-original","304","725381","0.0-23.0-1.189","","387.8949999999022","Stim/Stim-BG/NI_M.PNG","66","","","1","exp","400","1","1","IC","b","true"
"fixation-image-keyboard-release-original","305","727861","0.0-23.0-1.190","","474.7249999999767","Stim/Stim-BG/MM_M.PNG","66","","","2","exp","700","2","1","C","b","true"
"fixation-image-keyboard-release-original","306","730405","0.0-23.0-1.191","","542.2350000008009","Stim/Stim-BG/NI_I.PNG","86","","","1","exp","400","1","0","C","v","true"
"call-function","307","731407","0.0-24.0","","","","","","","","","","","","","",""
"survey-html-form","308","734874","0.0-25.0","","3465.8249999993714","","","{""hands2"":""Right""}","","","","","","","","",""
"html-keyboard-response","309","808757","0.0-26.0","","73881.90000000037","<p><h1>This is the end of the experiment.</h1></p><p>Please <a href='Debrief.pdf' target='_blank'>Click Here</a> (this will open a new window) to read more about the study.</p><p>Press ENTER to end the experiment (you will be sent to Prolific - if something goes wrong, the completion code for this study is: 3F11CBBF).</p>","13","","","","","","","","","",""
"pavlovia","310","808764","0.0-27.0","","","","","","","","","","","","","",""
