"trial_type","trial_index","time_elapsed","internal_node_id","value","rt","stimulus","key_press","responses","success","hand","test","gap","finger","cue","con","correct_response","correct"
"pavlovia","0","89","0.0-0.0","","","","","","","","","","","","","",""
"call-function","1","100","0.0-1.0","","","","","","","","","","","","","",""
"html-keyboard-response","2","10007","0.0-2.0","","9899.615000002086","<div class = 'my_window'><p><h1>Welcome!</h1><br><p><p>This experiment is adminterested by Carl Michael Galang (McMaster University), Dr. Emiel Cracco (Ghent University), Dr. Marcel Brass (Humboldt University of Berlin), & Dr. Sukhvinder Obhi (McMaster University).</p><p>The purpose of this study is to explore basic perceptual processing mechanisms.</p><p>Information gathered during this study will be written up for publication in an academic journal. While there are no direct benefits to you taking part in this study (other than learning more about the research topic and getting paid on Prolific), the results of this study will provide us with a better understanding of perceptual and sensory processes. To learn about this study, particularly in the terms of any associated risks or harms, how confidentiality and anonymity will be handled, withdrawal procedures, incentives that are promised, how to obtain information about the results, etc., please read the accompanying letter of information - <a href='LOI.pdf' target='_blank'>Click Here</a> (this will open a new window).</p><p>This study should take around 10min to complete.</p><p>If you have questions or need more information about the study itself, please contact me at: galangc@mcmaster.ca. This study has been reviewed by the McMaster University Research Ethics Board and received ethics clearance. If you have concerns or questions about your rights as a participant or about the way the study is conducted, please contact the McMaster Research Ethics Secretariat at ethicsoffice@mcmaster.ca.</p><br><p><h1>CONSENT</h1></p><p>I have read the information presented in the letter of information and I agree to participate in this study.</p><p>By pressing Enter, I consent to the above.<p>","13","","","","","","","","","",""
"survey-html-form","3","14373","0.0-3.0","","4343.279999971855","","","{""1"":""5e68bd36f0153b000a148229""}","","","","","","","","",""
"fullscreen","4","18020","0.0-4.0","","","","","","true","","","","","","","",""
"call-function","5","18030","0.0-5.0","","","","","","","","","","","","","",""
"html-keyboard-response","6","41510","0.0-6.0","","23468.785000033677","<div class = 'my_window'><h1>Instructions</h1><p>Your task in this experiment is to respond to the letters I or M as they appear on the screen. Unlike most experiments, your task will be to <strong><u>release</u></strong> keys (not push).</p><p>Before each trial starts, please ensure that you keep the <strong><u>V key</u></strong> and <strong><u>B key</u></strong> depressed with your <strong><u>right index finger</u></strong> on the <strong><u>V key</u></strong> and your <strong><u>right middle finger</u></strong> on the <strong><u>B key</u></strong> (see image below). Responses on this experiment will consist of lifting your <strong><u>right index finger</u></strong> to release the <strong><u>V key</u></strong> if you see the letter <strong><u>I</u></strong> or lifting your <strong><u>right middle finger</u></strong> to release the <strong><u>B key</u></strong> if you see the letter <strong><u>M</u></strong> as fast as you can. It is important that you <strong><u>only use your right hand</u></strong> to do the task.</p><p><img src='keyboard_img.png'></p><p>While you complete this task, there will be a couple of hands moving in the background. Ignore them and focus on the task.</p><p>Press ENTER to continue.</p></div>","13","","","","","","","","","",""
"html-keyboard-response","7","45839","0.0-7.0","","4322.640000027604","<div class = 'my_window'><h1>Practice</h1><p>You will first do a practice phase. In the practice phase, you will get feedback on your performance. The practice phase contains 10 trials, but will add an extra trial every time you respond incorrectly.</p><p><p>Before each trial starts, please ensure that you keep the <strong><u>V key</u></strong> and <strong><u>B key</u></strong> depressed with your <strong><u>right index finger</u></strong> on the <strong><u>V key</u></strong> and your <strong><u>right middle finger</u></strong> on the <strong><u>B key</u></strong> (see image below). Responses on this experiment will consist of lifting your <strong><u>right index finger</u></strong> to release the <strong><u>V key</u></strong> if you see the letter <strong><u>I</u></strong> or lifting your <strong><u>right middle finger</u></strong> to release the <strong><u>B key</u></strong> if you see the letter <strong><u>M</u></strong> as fast as you can. It is important that you <strong><u>only use your right hand</u></strong> to do the task.</p><p><img src='keyboard_img.png'></p><p>While you complete this task, there will be a couple of hands moving in the background. Ignore them and focus on the task.</p><p>This is a reaction time experiment, so please try to respond as fast as possible while at the same time minimizing mistakes.</p><p>Press ENTER to begin.</p></div>","13","","","","","","","","","",""
"fixation-image-keyboard-release-original","734","66167","0.0-8.0-1.0","","3254.3600000208244","Stim/Stim-GB/II_M.PNG","66","","","2","exp","100","1","1","IC","b","true"
"html-keyboard-response","735","67292","0.0-8.0-2.0","","null","<p> CORRECT </p>","null","","","","","","","","","",""
"fixation-image-keyboard-release-original","972","73966","0.0-9.0-1.0","","722.4950000527315","Stim/Stim-BG/MM_I.PNG","86","","","2","exp","100","2","0","IC","v","true"
"html-keyboard-response","973","75074","0.0-9.0-2.0","","null","<p> CORRECT </p>","null","","","","","","","","","",""
"fixation-image-keyboard-release-original","1002","77204","0.0-10.0-1.0","","575.2949999878183","Stim/Stim-GB/II_M.PNG","66","","","2","exp","400","1","1","IC","b","true"
"html-keyboard-response","1003","78322","0.0-10.0-2.0","","null","<p> CORRECT </p>","null","","","","","","","","","",""
"fixation-image-keyboard-release-original","1116","82227","0.0-11.0-1.0","","562.9099999787286","Stim/Stim-BG/NI_I.PNG","86","","","1","exp","700","1","0","C","v","true"
"html-keyboard-response","1117","83344","0.0-11.0-2.0","","null","<p> CORRECT </p>","null","","","","","","","","","",""
"fixation-image-keyboard-release-original","1217","86942","0.0-12.0-1.0","","649.7849999577738","Stim/Stim-BG/MM_I.PNG","86","","","2","exp","400","2","0","IC","v","true"
"html-keyboard-response","1218","88057","0.0-12.0-2.0","","null","<p> CORRECT </p>","null","","","","","","","","","",""
"fixation-image-keyboard-release-original","1239","90021","0.0-13.0-1.0","","544.8249999899417","Stim/Stim-BG/II_I.PNG","86","","","2","exp","400","1","0","C","v","true"
"html-keyboard-response","1240","91130","0.0-13.0-2.0","","null","<p> CORRECT </p>","null","","","","","","","","","",""
"fixation-image-keyboard-release-original","1241","92709","0.0-14.0-1.0","","562.3349999659695","Stim/Stim-GB/MM_I.PNG","86","","","2","exp","400","2","0","IC","v","true"
"html-keyboard-response","1242","93820","0.0-14.0-2.0","","null","<p> CORRECT </p>","null","","","","","","","","","",""
"fixation-image-keyboard-release-original","1243","95142","0.0-15.0-1.0","","290.26499995961785","Stim/Stim-BG/MN_I.PNG","66","","","1","exp","700","2","0","IC","v","false"
"html-keyboard-response","1244","96268","0.0-15.0-2.0","","null","<p> INCORRECT </p>","null","","","","","","","","","",""
"fixation-image-keyboard-release-original","1245","97595","0.0-15.1-1.1","","308.38000000221655","Stim/Stim-BG/II_I.PNG","66","","","2","exp","700","1","0","C","v","false"
"html-keyboard-response","1246","98719","0.0-15.1-2.1","","null","<p> INCORRECT </p>","null","","","","","","","","","",""
"fixation-image-keyboard-release-original","1247","100221","0.0-15.2-1.2","","479.6249999781139","Stim/Stim-GB/IN_M.PNG","66","","","1","exp","400","1","1","IC","b","true"
"html-keyboard-response","1248","101346","0.0-15.2-2.2","","null","<p> CORRECT </p>","null","","","","","","","","","",""
"fixation-image-keyboard-release-original","1249","102837","0.0-16.0-1.0","","477.4049999541603","Stim/Stim-BG/MM_M.PNG","66","","","2","exp","700","2","1","C","b","true"
"html-keyboard-response","1250","103954","0.0-16.0-2.0","","null","<p> CORRECT </p>","null","","","","","","","","","",""
"fixation-image-keyboard-release-original","1251","105477","0.0-17.0-1.0","","496.7600000090897","Stim/Stim-BG/NM_M.PNG","66","","","1","exp","700","2","1","C","b","true"
"html-keyboard-response","1252","106604","0.0-17.0-2.0","","null","<p> CORRECT </p>","null","","","","","","","","","",""
"call-function","1253","106608","0.0-18.0","","","","","","","","","","","","","",""
"survey-html-form","1254","111596","0.0-19.0","","4970.124999992549","","","{""hands"":""Right""}","","","","","","","","",""
"html-keyboard-response","1255","117504","0.0-20.0","","5900.224999990314","If you are using <strong><u>just</u></strong> your <strong></u>right hand</u></strong>, then good job! If not, please do so in the main part of the experiment.<br><br>Press Enter to continue","13","","","","","","","","","",""
"html-keyboard-response","1256","121310","0.0-21.0","","3800.5899999989197","<div class = 'my_window'><h1>Main Trials</h1><p>Good Job! We will now begin the main trials. In the main trials, you will <strong>not</strong> get feedback. There are 192 trials overall. You will get a self-paced break every 48 trials.</p><p>Instructions Reminder: <p>Before each trial starts, please ensure that you keep the <strong><u>V key</u></strong> and <strong><u>B key</u></strong> depressed with your <strong><u>right index finger</u></strong> on the <strong><u>V key</u></strong> and your <strong><u>right middle finger</u></strong> on the <strong><u>B key</u></strong> (see image below). Responses on this experiment will consist of lifting your <strong><u>right index finger</u></strong> to release the <strong><u>V key</u></strong> if you see the letter <strong><u>I</u></strong> or lifting your <strong><u>right middle finger</u></strong> to release the <strong><u>B key</u></strong> if you see the letter <strong><u>M</u></strong> as fast as you can. It is important that you <strong><u>only use your right hand</u></strong> to do the task.</p><p><img src='keyboard_img.png'></p><p>While you complete this task, there will be a couple of hands moving in the background. Ignore them and focus on the task.</p><p>Remember: this is a reaction time experiment, so please try to respond as fast as possible while at the same time minimizing mistakes.</p><p>Press ENTER to begin.</p></div>","13","","","","","","","","","",""
"call-function","1257","121312","0.0-22.0","","","","","","","","","","","","","",""
"fixation-image-keyboard-release-original","1304","123700","0.0-23.0-1.0","","402.44999999413267","Stim/Stim-BG/II_M.PNG","66","","","2","exp","400","1","1","IC","b","true"
"fixation-image-keyboard-release-original","1305","126072","0.0-23.0-1.1","","349.64500000933185","Stim/Stim-BG/MN_M.PNG","66","","","1","exp","400","2","1","C","b","true"
"fixation-image-keyboard-release-original","1306","128508","0.0-23.0-1.2","","404.81000003637746","Stim/Stim-GB/II_M.PNG","66","","","2","exp","700","1","1","IC","b","true"
"fixation-image-keyboard-release-original","1307","131121","0.0-23.0-1.3","","591.2949999910779","Stim/Stim-GB/II_I.PNG","86","","","2","exp","100","1","0","C","v","true"
"fixation-image-keyboard-release-original","1308","133487","0.0-23.0-1.4","","343.90999999595806","Stim/Stim-GB/NI_I.PNG","66","","","1","exp","100","1","0","C","v","false"
"fixation-image-keyboard-release-original","1309","135910","0.0-23.0-1.5","","401.46500000264496","Stim/Stim-GB/NI_M.PNG","66","","","1","exp","700","1","1","IC","b","true"
"fixation-image-keyboard-release-original","1310","138263","0.0-23.0-1.6","","330.3050000104122","Stim/Stim-BG/IN_I.PNG","86","","","1","exp","100","1","0","C","v","true"
"fixation-image-keyboard-release-original","1311","140671","0.0-23.0-1.7","","382.114999985788","Stim/Stim-GB/NI_I.PNG","86","","","1","exp","700","1","0","C","v","true"
"fixation-image-keyboard-release-original","1312","143198","0.0-23.0-1.8","","506.8600000231527","Stim/Stim-GB/IN_I.PNG","86","","","1","exp","100","1","0","C","v","true"
"fixation-image-keyboard-release-original","1313","145798","0.0-23.0-1.9","","573.0650000041351","Stim/Stim-BG/II_I.PNG","86","","","2","exp","400","1","0","C","v","true"
"fixation-image-keyboard-release-original","1314","148214","0.0-23.0-1.10","","401.6900000278838","Stim/Stim-BG/II_I.PNG","86","","","2","exp","400","1","0","C","v","true"
"fixation-image-keyboard-release-original","1315","150742","0.0-23.0-1.11","","509.7449999884702","Stim/Stim-BG/MM_M.PNG","66","","","2","exp","100","2","1","C","b","true"
"fixation-image-keyboard-release-original","1316","153090","0.0-23.0-1.12","","332.3400000226684","Stim/Stim-BG/MM_M.PNG","66","","","2","exp","100","2","1","C","b","true"
"fixation-image-keyboard-release-original","1317","155543","0.0-23.0-1.13","","432.61999997776","Stim/Stim-BG/II_I.PNG","86","","","2","exp","700","1","0","C","v","true"
"fixation-image-keyboard-release-original","1318","158078","0.0-23.0-1.14","","501.1250000097789","Stim/Stim-GB/MM_M.PNG","66","","","2","exp","400","2","1","C","b","true"
"fixation-image-keyboard-release-original","1319","160535","0.0-23.0-1.15","","436.08499999390915","Stim/Stim-BG/MM_I.PNG","86","","","2","exp","700","2","0","IC","v","true"
"fixation-image-keyboard-release-original","1320","162936","0.0-23.0-1.16","","390.73499996447936","Stim/Stim-GB/MM_M.PNG","66","","","2","exp","700","2","1","C","b","true"
"fixation-image-keyboard-release-original","1321","165418","0.0-23.0-1.17","","460.6300000450574","Stim/Stim-BG/IN_M.PNG","66","","","1","exp","700","1","1","IC","b","true"
"fixation-image-keyboard-release-original","1322","167936","0.0-23.0-1.18","","496.5799999772571","Stim/Stim-BG/MN_I.PNG","86","","","1","exp","100","2","0","IC","v","true"
"fixation-image-keyboard-release-original","1323","170280","0.0-23.0-1.19","","321.0049999761395","Stim/Stim-BG/NM_M.PNG","66","","","1","exp","700","2","1","C","b","true"
"fixation-image-keyboard-release-original","1324","172688","0.0-23.0-1.20","","379.285000031814","Stim/Stim-GB/IN_M.PNG","66","","","1","exp","100","1","1","IC","b","true"
"fixation-image-keyboard-release-original","1325","175191","0.0-23.0-1.21","","479.8350000055507","Stim/Stim-GB/MM_I.PNG","86","","","2","exp","400","2","0","IC","v","true"
"fixation-image-keyboard-release-original","1326","177592","0.0-23.0-1.22","","367.2950000036508","Stim/Stim-GB/II_M.PNG","66","","","2","exp","100","1","1","IC","b","true"
"fixation-image-keyboard-release-original","1327","179959","0.0-23.0-1.23","","353.9100000052713","Stim/Stim-BG/II_M.PNG","66","","","2","exp","100","1","1","IC","b","true"
"fixation-image-keyboard-release-original","1328","182368","0.0-23.0-1.24","","399.50999995926395","Stim/Stim-GB/MM_I.PNG","86","","","2","exp","700","2","0","IC","v","true"
"fixation-image-keyboard-release-original","1329","184803","0.0-23.0-1.25","","422.069999971427","Stim/Stim-GB/MM_I.PNG","86","","","2","exp","700","2","0","IC","v","true"
"fixation-image-keyboard-release-original","1330","187312","0.0-23.0-1.26","","487.5750000355765","Stim/Stim-GB/IN_M.PNG","66","","","1","exp","400","1","1","IC","b","true"
"fixation-image-keyboard-release-original","1331","189824","0.0-23.0-1.27","","480.9349999995902","Stim/Stim-BG/MM_I.PNG","86","","","2","exp","100","2","0","IC","v","true"
"fixation-image-keyboard-release-original","1332","192264","0.0-23.0-1.28","","421.3950000121258","Stim/Stim-GB/NM_I.PNG","86","","","1","exp","400","2","0","IC","v","true"
"fixation-image-keyboard-release-original","1333","194587","0.0-23.0-1.29","","304.7499999520369","Stim/Stim-GB/MM_M.PNG","66","","","2","exp","100","2","1","C","b","true"
"fixation-image-keyboard-release-original","1334","197104","0.0-23.0-1.30","","496.5000000083819","Stim/Stim-GB/MM_I.PNG","86","","","2","exp","700","2","0","IC","v","true"
"fixation-image-keyboard-release-original","1335","199585","0.0-23.0-1.31","","461.1699999659322","Stim/Stim-GB/MM_I.PNG","86","","","2","exp","400","2","0","IC","v","true"
"fixation-image-keyboard-release-original","1336","202063","0.0-23.0-1.32","","466.35499998228624","Stim/Stim-GB/IN_M.PNG","66","","","1","exp","700","1","1","IC","b","true"
"fixation-image-keyboard-release-original","1337","204655","0.0-23.0-1.33","","570.1150000095367","Stim/Stim-GB/NI_I.PNG","86","","","1","exp","100","1","0","C","v","true"
"fixation-image-keyboard-release-original","1338","207008","0.0-23.0-1.34","","333.55000003939494","Stim/Stim-BG/IN_M.PNG","86","","","1","exp","700","1","1","IC","b","false"
"fixation-image-keyboard-release-original","1339","209496","0.0-23.0-1.35","","470.2450000331737","Stim/Stim-BG/II_M.PNG","66","","","2","exp","100","1","1","IC","b","true"
"fixation-image-keyboard-release-original","1340","211863","0.0-23.0-1.36","","344.8949999874458","Stim/Stim-BG/II_M.PNG","66","","","2","exp","700","1","1","IC","b","true"
"fixation-image-keyboard-release-original","1341","214186","0.0-23.0-1.37","","294.21500000171363","Stim/Stim-BG/MM_M.PNG","66","","","2","exp","400","2","1","C","b","true"
"fixation-image-keyboard-release-original","1342","216722","0.0-23.0-1.38","","520.5149999819696","Stim/Stim-GB/IN_I.PNG","86","","","1","exp","700","1","0","C","v","true"
"fixation-image-keyboard-release-original","1343","219112","0.0-23.0-1.39","","355.12999998172745","Stim/Stim-GB/II_M.PNG","66","","","2","exp","700","1","1","IC","b","true"
"fixation-image-keyboard-release-original","1344","221570","0.0-23.0-1.40","","435.61000004410744","Stim/Stim-GB/IN_I.PNG","86","","","1","exp","700","1","0","C","v","true"
"fixation-image-keyboard-release-original","1345","224057","0.0-23.0-1.41","","459.67499999096617","Stim/Stim-GB/II_I.PNG","86","","","2","exp","100","1","0","C","v","true"
"fixation-image-keyboard-release-original","1346","226553","0.0-23.0-1.42","","481.145000027027","Stim/Stim-BG/MM_I.PNG","86","","","2","exp","100","2","0","IC","v","true"
"fixation-image-keyboard-release-original","1347","229064","0.0-23.0-1.43","","470.789999992121","Stim/Stim-BG/MM_I.PNG","86","","","2","exp","400","2","0","IC","v","true"
"fixation-image-keyboard-release-original","1348","231545","0.0-23.0-1.44","","451.6849999781698","Stim/Stim-BG/II_I.PNG","86","","","2","exp","400","1","0","C","v","true"
"fixation-image-keyboard-release-original","1349","233913","0.0-23.0-1.45","","340.49999999115244","Stim/Stim-BG/NI_I.PNG","66","","","1","exp","700","1","0","C","v","false"
"fixation-image-keyboard-release-original","1350","236280","0.0-23.0-1.46","","354.2850000085309","Stim/Stim-GB/II_I.PNG","86","","","2","exp","700","1","0","C","v","true"
"fixation-image-keyboard-release-original","1351","238617","0.0-23.0-1.47","","312.53499997546896","Stim/Stim-BG/MM_I.PNG","86","","","2","exp","700","2","0","IC","v","true"
"html-keyboard-response","1352","244761","0.0-23.0-2.47-0.47","","5135.275000007823","Take a break. Feel free to start again by pressing Enter.","13","","","","","","","","","",""
"fixation-image-keyboard-release-original","1403","248683","0.0-23.0-1.48","","1587.24500000244","Stim/Stim-GB/MN_M.PNG","66","","","1","exp","400","2","1","C","b","true"
"fixation-image-keyboard-release-original","1454","252416","0.0-23.0-1.49","","515.999999945052","Stim/Stim-GB/NI_I.PNG","86","","","1","exp","400","1","0","C","v","true"
"fixation-image-keyboard-release-original","1455","254860","0.0-23.0-1.50","","421.4149999897927","Stim/Stim-GB/IN_I.PNG","86","","","1","exp","100","1","0","C","v","true"
"fixation-image-keyboard-release-original","1456","257228","0.0-23.0-1.51","","341.0450000083074","Stim/Stim-GB/II_I.PNG","86","","","2","exp","400","1","0","C","v","true"
"fixation-image-keyboard-release-original","1457","259620","0.0-23.0-1.52","","371.94499996257946","Stim/Stim-GB/NM_M.PNG","66","","","1","exp","400","2","1","C","b","true"
"fixation-image-keyboard-release-original","1458","262076","0.0-23.0-1.53","","434.9250000086613","Stim/Stim-BG/MN_I.PNG","86","","","1","exp","100","2","0","IC","v","true"
"fixation-image-keyboard-release-original","1459","264454","0.0-23.0-1.54","","364.73500001011416","Stim/Stim-GB/II_I.PNG","86","","","2","exp","700","1","0","C","v","true"
"fixation-image-keyboard-release-original","1460","266902","0.0-23.0-1.55","","441.6549999732524","Stim/Stim-GB/II_I.PNG","86","","","2","exp","700","1","0","C","v","true"
"fixation-image-keyboard-release-original","1461","269362","0.0-23.0-1.56","","434.2649999889545","Stim/Stim-BG/II_M.PNG","66","","","2","exp","400","1","1","IC","b","true"
"fixation-image-keyboard-release-original","1462","271855","0.0-23.0-1.57","","464.9199999985285","Stim/Stim-BG/MM_I.PNG","86","","","2","exp","700","2","0","IC","v","true"
"fixation-image-keyboard-release-original","1463","274230","0.0-23.0-1.58","","361.86499998439103","Stim/Stim-GB/NM_M.PNG","66","","","1","exp","700","2","1","C","b","true"
"fixation-image-keyboard-release-original","1464","276654","0.0-23.0-1.59","","406.8299999926239","Stim/Stim-GB/MM_I.PNG","86","","","2","exp","100","2","0","IC","v","true"
"fixation-image-keyboard-release-original","1465","279270","0.0-23.0-1.60","","592.5050000078045","Stim/Stim-GB/NM_I.PNG","86","","","1","exp","700","2","0","IC","v","true"
"fixation-image-keyboard-release-original","1466","281677","0.0-23.0-1.61","","394.0699999802746","Stim/Stim-BG/NM_M.PNG","66","","","1","exp","400","2","1","C","b","true"
"fixation-image-keyboard-release-original","1467","284164","0.0-23.0-1.62","","473.9100000006147","Stim/Stim-BG/II_I.PNG","86","","","2","exp","100","1","0","C","v","true"
"fixation-image-keyboard-release-original","1468","286645","0.0-23.0-1.63","","464.6400000201538","Stim/Stim-BG/MN_M.PNG","66","","","1","exp","100","2","1","C","b","true"
"fixation-image-keyboard-release-original","1469","289046","0.0-23.0-1.64","","381.6699999733828","Stim/Stim-GB/MM_M.PNG","66","","","2","exp","100","2","1","C","b","true"
"fixation-image-keyboard-release-original","1470","291502","0.0-23.0-1.65","","440.75000000884756","Stim/Stim-GB/MM_M.PNG","66","","","2","exp","100","2","1","C","b","true"
"fixation-image-keyboard-release-original","1471","293877","0.0-23.0-1.66","","348.4199999948032","Stim/Stim-GB/NM_M.PNG","66","","","1","exp","700","2","1","C","b","true"
"fixation-image-keyboard-release-original","1472","296314","0.0-23.0-1.67","","399.6049999841489","Stim/Stim-GB/IN_M.PNG","66","","","1","exp","100","1","1","IC","b","true"
"fixation-image-keyboard-release-original","1473","298719","0.0-23.0-1.68","","377.02999997418374","Stim/Stim-GB/NI_M.PNG","66","","","1","exp","100","1","1","IC","b","true"
"fixation-image-keyboard-release-original","1474","301061","0.0-23.0-1.69","","319.4399999920279","Stim/Stim-BG/MN_M.PNG","66","","","1","exp","700","2","1","C","b","true"
"fixation-image-keyboard-release-original","1475","303695","0.0-23.0-1.70","","607.9650000319816","Stim/Stim-GB/IN_I.PNG","86","","","1","exp","400","1","0","C","v","true"
"fixation-image-keyboard-release-original","1476","306141","0.0-23.0-1.71","","417.0049999956973","Stim/Stim-GB/MN_M.PNG","66","","","1","exp","700","2","1","C","b","true"
"fixation-image-keyboard-release-original","1477","308582","0.0-23.0-1.72","","420.3799999668263","Stim/Stim-GB/NI_M.PNG","66","","","1","exp","700","1","1","IC","b","true"
"fixation-image-keyboard-release-original","1478","311035","0.0-23.0-1.73","","427.90499998955056","Stim/Stim-GB/MM_I.PNG","86","","","2","exp","100","2","0","IC","v","true"
"fixation-image-keyboard-release-original","1479","313518","0.0-23.0-1.74","","460.8350000344217","Stim/Stim-BG/MM_M.PNG","66","","","2","exp","700","2","1","C","b","true"
"fixation-image-keyboard-release-original","1480","315956","0.0-23.0-1.75","","415.88000004412606","Stim/Stim-GB/II_M.PNG","66","","","2","exp","400","1","1","IC","b","true"
"fixation-image-keyboard-release-original","1481","318435","0.0-23.0-1.76","","456.6750000230968","Stim/Stim-GB/MN_I.PNG","86","","","1","exp","700","2","0","IC","v","true"
"fixation-image-keyboard-release-original","1482","320891","0.0-23.0-1.77","","442.7650000434369","Stim/Stim-GB/II_M.PNG","66","","","2","exp","100","1","1","IC","b","true"
"fixation-image-keyboard-release-original","1483","323268","0.0-23.0-1.78","","342.7699999883771","Stim/Stim-GB/NM_I.PNG","66","","","1","exp","100","2","0","IC","v","false"
"fixation-image-keyboard-release-original","1484","325774","0.0-23.0-1.79","","482.9899999895133","Stim/Stim-BG/NI_I.PNG","86","","","1","exp","400","1","0","C","v","true"
"fixation-image-keyboard-release-original","1485","328270","0.0-23.0-1.80","","468.6150000197813","Stim/Stim-BG/IN_M.PNG","66","","","1","exp","400","1","1","IC","b","true"
"fixation-image-keyboard-release-original","1486","330723","0.0-23.0-1.81","","419.3700000178069","Stim/Stim-GB/II_M.PNG","66","","","2","exp","400","1","1","IC","b","true"
"fixation-image-keyboard-release-original","1487","333116","0.0-23.0-1.82","","372.9099999764003","Stim/Stim-GB/NI_M.PNG","66","","","1","exp","400","1","1","IC","b","true"
"fixation-image-keyboard-release-original","1488","335534","0.0-23.0-1.83","","393.4449999942444","Stim/Stim-BG/II_M.PNG","66","","","2","exp","100","1","1","IC","b","true"
"fixation-image-keyboard-release-original","1489","338088","0.0-23.0-1.84","","530.6700000073761","Stim/Stim-BG/NM_I.PNG","86","","","1","exp","700","2","0","IC","v","true"
"fixation-image-keyboard-release-original","1490","340517","0.0-23.0-1.85","","414.19000003952533","Stim/Stim-GB/MN_M.PNG","66","","","1","exp","700","2","1","C","b","true"
"fixation-image-keyboard-release-original","1491","342869","0.0-23.0-1.86","","339.5400000154041","Stim/Stim-BG/NI_I.PNG","66","","","1","exp","100","1","0","C","v","false"
"fixation-image-keyboard-release-original","1492","345282","0.0-23.0-1.87","","387.3549999552779","Stim/Stim-GB/II_I.PNG","86","","","2","exp","700","1","0","C","v","true"
"fixation-image-keyboard-release-original","1493","347671","0.0-23.0-1.88","","372.1800000057556","Stim/Stim-BG/NM_M.PNG","66","","","1","exp","400","2","1","C","b","true"
"fixation-image-keyboard-release-original","1494","350060","0.0-23.0-1.89","","363.30999998608604","Stim/Stim-GB/IN_I.PNG","86","","","1","exp","400","1","0","C","v","true"
"fixation-image-keyboard-release-original","1495","352509","0.0-23.0-1.90","","434.0500000398606","Stim/Stim-BG/MM_M.PNG","66","","","2","exp","100","2","1","C","b","true"
"fixation-image-keyboard-release-original","1496","354876","0.0-23.0-1.91","","335.93499998096377","Stim/Stim-BG/NM_M.PNG","66","","","1","exp","100","2","1","C","b","true"
"fixation-image-keyboard-release-original","1497","357276","0.0-23.0-1.92","","383.5349999717437","Stim/Stim-BG/MM_M.PNG","66","","","2","exp","700","2","1","C","b","true"
"fixation-image-keyboard-release-original","1498","359804","0.0-23.0-1.93","","498.4299999778159","Stim/Stim-GB/MM_I.PNG","86","","","2","exp","100","2","0","IC","v","true"
"fixation-image-keyboard-release-original","1499","362245","0.0-23.0-1.94","","416.7299999971874","Stim/Stim-GB/NI_I.PNG","86","","","1","exp","400","1","0","C","v","true"
"fixation-image-keyboard-release-original","1500","364621","0.0-23.0-1.95","","359.3550000223331","Stim/Stim-BG/IN_I.PNG","86","","","1","exp","100","1","0","C","v","true"
"html-keyboard-response","1501","380853","0.0-23.0-2.95-0.95","","15227.350000001024","Take a break. Feel free to start again by pressing Enter.","13","","","","","","","","","",""
"fixation-image-keyboard-release-original","1544","383264","0.0-23.0-1.96","","502.15499999467283","Stim/Stim-GB/MN_M.PNG","66","","","1","exp","400","2","1","C","b","true"
"fixation-image-keyboard-release-original","1545","385608","0.0-23.0-1.97","","323.89999995939434","Stim/Stim-GB/MN_I.PNG","86","","","1","exp","100","2","0","IC","v","true"
"fixation-image-keyboard-release-original","1546","387993","0.0-23.0-1.98","","369.4699999759905","Stim/Stim-BG/MM_M.PNG","66","","","2","exp","700","2","1","C","b","true"
"fixation-image-keyboard-release-original","1547","390360","0.0-23.0-1.99","","346.81499999715015","Stim/Stim-BG/IN_I.PNG","86","","","1","exp","400","1","0","C","v","true"
"fixation-image-keyboard-release-original","1548","392729","0.0-23.0-1.100","","357.49000002397224","Stim/Stim-GB/II_M.PNG","66","","","2","exp","400","1","1","IC","b","true"
"fixation-image-keyboard-release-original","1549","395129","0.0-23.0-1.101","","384.33999998960644","Stim/Stim-GB/MM_I.PNG","86","","","2","exp","100","2","0","IC","v","true"
"fixation-image-keyboard-release-original","1550","397577","0.0-23.0-1.102","","418.6549999867566","Stim/Stim-GB/MM_M.PNG","66","","","2","exp","400","2","1","C","b","true"
"fixation-image-keyboard-release-original","1551","399977","0.0-23.0-1.103","","378.12499998835847","Stim/Stim-BG/MM_I.PNG","86","","","2","exp","100","2","0","IC","v","true"
"fixation-image-keyboard-release-original","1552","402473","0.0-23.0-1.104","","463.1950000184588","Stim/Stim-BG/NM_I.PNG","86","","","1","exp","700","2","0","IC","v","true"
"fixation-image-keyboard-release-original","1553","404969","0.0-23.0-1.105","","481.72499996144325","Stim/Stim-GB/MM_M.PNG","66","","","2","exp","700","2","1","C","b","true"
"fixation-image-keyboard-release-original","1554","407409","0.0-23.0-1.106","","399.11499997833744","Stim/Stim-GB/MM_M.PNG","66","","","2","exp","700","2","1","C","b","true"
"fixation-image-keyboard-release-original","1555","409852","0.0-23.0-1.107","","418.74499997356907","Stim/Stim-BG/II_I.PNG","86","","","2","exp","400","1","0","C","v","true"
"fixation-image-keyboard-release-original","1556","412369","0.0-23.0-1.108","","507.6400000252761","Stim/Stim-BG/NM_I.PNG","86","","","1","exp","100","2","0","IC","v","true"
"fixation-image-keyboard-release-original","1557","414912","0.0-23.0-1.109","","526.5500000095926","Stim/Stim-BG/MM_M.PNG","66","","","2","exp","400","2","1","C","b","true"
"fixation-image-keyboard-release-original","1558","417266","0.0-23.0-1.110","","330.309999990277","Stim/Stim-BG/MM_M.PNG","66","","","2","exp","400","2","1","C","b","true"
"fixation-image-keyboard-release-original","1559","419625","0.0-23.0-1.111","","344.5649999775924","Stim/Stim-BG/NM_I.PNG","66","","","1","exp","100","2","0","IC","v","false"
"fixation-image-keyboard-release-original","1560","422019","0.0-23.0-1.112","","366.32999998982996","Stim/Stim-BG/MN_I.PNG","86","","","1","exp","700","2","0","IC","v","true"
"fixation-image-keyboard-release-original","1561","424520","0.0-23.0-1.113","","489.9000000441447","Stim/Stim-BG/MM_I.PNG","86","","","2","exp","400","2","0","IC","v","true"
"fixation-image-keyboard-release-original","1562","426977","0.0-23.0-1.114","","432.5150000513531","Stim/Stim-BG/II_I.PNG","86","","","2","exp","700","1","0","C","v","true"
"fixation-image-keyboard-release-original","1563","429481","0.0-23.0-1.115","","476.7449999926612","Stim/Stim-GB/MM_I.PNG","86","","","2","exp","400","2","0","IC","v","true"
"fixation-image-keyboard-release-original","1564","431960","0.0-23.0-1.116","","458.260000043083","Stim/Stim-BG/II_M.PNG","66","","","2","exp","400","1","1","IC","b","true"
"fixation-image-keyboard-release-original","1565","434328","0.0-23.0-1.117","","348.08499994687736","Stim/Stim-BG/MN_I.PNG","86","","","1","exp","700","2","0","IC","v","true"
"fixation-image-keyboard-release-original","1566","436791","0.0-23.0-1.118","","435.56999997235835","Stim/Stim-GB/MM_M.PNG","66","","","2","exp","100","2","1","C","b","true"
"fixation-image-keyboard-release-original","1567","439236","0.0-23.0-1.119","","414.45999999996275","Stim/Stim-GB/II_M.PNG","66","","","2","exp","700","1","1","IC","b","true"
"fixation-image-keyboard-release-original","1568","441676","0.0-23.0-1.120","","420.34999997122213","Stim/Stim-BG/NM_I.PNG","86","","","1","exp","400","2","0","IC","v","true"
"fixation-image-keyboard-release-original","1569","444065","0.0-23.0-1.121","","361.10500001814216","Stim/Stim-BG/NI_M.PNG","66","","","1","exp","700","1","1","IC","b","true"
"fixation-image-keyboard-release-original","1570","446468","0.0-23.0-1.122","","381.62000000011176","Stim/Stim-BG/NI_M.PNG","66","","","1","exp","400","1","1","IC","b","true"
"fixation-image-keyboard-release-original","1571","448985","0.0-23.0-1.123","","484.34000002453104","Stim/Stim-GB/II_I.PNG","86","","","2","exp","400","1","0","C","v","true"
"fixation-image-keyboard-release-original","1572","451331","0.0-23.0-1.124","","327.2550000110641","Stim/Stim-GB/MM_I.PNG","66","","","2","exp","700","2","0","IC","v","false"
"fixation-image-keyboard-release-original","1573","453721","0.0-23.0-1.125","","360.8050000038929","Stim/Stim-BG/NI_I.PNG","66","","","1","exp","100","1","0","C","v","false"
"fixation-image-keyboard-release-original","1574","456267","0.0-23.0-1.126","","514.4850000506267","Stim/Stim-BG/II_M.PNG","66","","","2","exp","700","1","1","IC","b","true"
"fixation-image-keyboard-release-original","1575","458769","0.0-23.0-1.127","","477.36499999882653","Stim/Stim-BG/NM_M.PNG","66","","","1","exp","100","2","1","C","b","true"
"fixation-image-keyboard-release-original","1576","461153","0.0-23.0-1.128","","363.1450000102632","Stim/Stim-GB/NI_M.PNG","66","","","1","exp","400","1","1","IC","b","true"
"fixation-image-keyboard-release-original","1577","463681","0.0-23.0-1.129","","508.67499999003485","Stim/Stim-GB/NM_I.PNG","86","","","1","exp","100","2","0","IC","v","true"
"fixation-image-keyboard-release-original","1578","466178","0.0-23.0-1.130","","482.30500001227483","Stim/Stim-BG/IN_M.PNG","66","","","1","exp","100","1","1","IC","b","true"
"fixation-image-keyboard-release-original","1579","468576","0.0-23.0-1.131","","377.8650000458583","Stim/Stim-GB/NM_I.PNG","86","","","1","exp","400","2","0","IC","v","true"
"fixation-image-keyboard-release-original","1580","471017","0.0-23.0-1.132","","413.20499998982996","Stim/Stim-GB/MN_M.PNG","66","","","1","exp","100","2","1","C","b","true"
"fixation-image-keyboard-release-original","1581","473474","0.0-23.0-1.133","","434.4450000207871","Stim/Stim-GB/NM_M.PNG","66","","","1","exp","400","2","1","C","b","true"
"fixation-image-keyboard-release-original","1582","475888","0.0-23.0-1.134","","381.664999993518","Stim/Stim-GB/NM_I.PNG","86","","","1","exp","700","2","0","IC","v","true"
"fixation-image-keyboard-release-original","1583","478291","0.0-23.0-1.135","","380.9050000272691","Stim/Stim-GB/II_I.PNG","86","","","2","exp","100","1","0","C","v","true"
"fixation-image-keyboard-release-original","1584","480651","0.0-23.0-1.136","","339.68500001356006","Stim/Stim-BG/NI_M.PNG","66","","","1","exp","100","1","1","IC","b","true"
"fixation-image-keyboard-release-original","1585","483191","0.0-23.0-1.137","","517.9399999906309","Stim/Stim-GB/MN_I.PNG","86","","","1","exp","400","2","0","IC","v","true"
"fixation-image-keyboard-release-original","1586","485570","0.0-23.0-1.138","","354.22499995911494","Stim/Stim-BG/II_I.PNG","86","","","2","exp","100","1","0","C","v","true"
"fixation-image-keyboard-release-original","1587","487898","0.0-23.0-1.139","","311.9149999693036","Stim/Stim-BG/IN_I.PNG","86","","","1","exp","700","1","0","C","v","true"
"fixation-image-keyboard-release-original","1588","490210","0.0-23.0-1.140","","300.73499999707565","Stim/Stim-BG/IN_I.PNG","86","","","1","exp","700","1","0","C","v","true"
"fixation-image-keyboard-release-original","1589","492585","0.0-23.0-1.141","","341.5700000477955","Stim/Stim-GB/NI_M.PNG","66","","","1","exp","100","1","1","IC","b","true"
"fixation-image-keyboard-release-original","1590","494985","0.0-23.0-1.142","","368.2200000039302","Stim/Stim-BG/NI_M.PNG","66","","","1","exp","400","1","1","IC","b","true"
"fixation-image-keyboard-release-original","1591","497506","0.0-23.0-1.143","","505.15000004088506","Stim/Stim-BG/II_I.PNG","86","","","2","exp","700","1","0","C","v","true"
"html-keyboard-response","1592","504508","0.0-23.0-2.143-0.143","","5991.700000013225","Take a break. Feel free to start again by pressing Enter.","13","","","","","","","","","",""
"fixation-image-keyboard-release-original","1622","506605","0.0-23.0-1.144","","421.1199999554083","Stim/Stim-GB/NI_I.PNG","86","","","1","exp","700","1","0","C","v","true"
"fixation-image-keyboard-release-original","1623","509058","0.0-23.0-1.145","","439.50000003678724","Stim/Stim-BG/II_I.PNG","86","","","2","exp","100","1","0","C","v","true"
"fixation-image-keyboard-release-original","1624","511434","0.0-23.0-1.146","","355.85999995237216","Stim/Stim-GB/II_I.PNG","86","","","2","exp","100","1","0","C","v","true"
"fixation-image-keyboard-release-original","1625","513815","0.0-23.0-1.147","","360.5350000434555","Stim/Stim-BG/II_M.PNG","66","","","2","exp","400","1","1","IC","b","true"
"fixation-image-keyboard-release-original","1626","516100","0.0-23.0-1.148","","259.6250000060536","Stim/Stim-GB/II_M.PNG","66","","","2","exp","100","1","1","IC","b","true"
"fixation-image-keyboard-release-original","1627","518565","0.0-23.0-1.149","","438.26999998418614","Stim/Stim-GB/MM_I.PNG","86","","","2","exp","400","2","0","IC","v","true"
"fixation-image-keyboard-release-original","1628","521058","0.0-23.0-1.150","","470.87000001920387","Stim/Stim-BG/II_M.PNG","66","","","2","exp","100","1","1","IC","b","true"
"fixation-image-keyboard-release-original","1629","523510","0.0-23.0-1.151","","416.75500001292676","Stim/Stim-GB/NM_M.PNG","66","","","1","exp","100","2","1","C","b","true"
"fixation-image-keyboard-release-original","1630","525834","0.0-23.0-1.152","","309.4249999849126","Stim/Stim-BG/NI_I.PNG","66","","","1","exp","400","1","0","C","v","false"
"fixation-image-keyboard-release-original","1631","528194","0.0-23.0-1.153","","334.88500001840293","Stim/Stim-BG/II_I.PNG","86","","","2","exp","100","1","0","C","v","true"
"fixation-image-keyboard-release-original","1632","530594","0.0-23.0-1.154","","375.3950000391342","Stim/Stim-BG/IN_I.PNG","86","","","1","exp","400","1","0","C","v","true"
"fixation-image-keyboard-release-original","1633","533123","0.0-23.0-1.155","","510.63999999314547","Stim/Stim-GB/MM_M.PNG","66","","","2","exp","400","2","1","C","b","true"
"fixation-image-keyboard-release-original","1634","535571","0.0-23.0-1.156","","418.6350000090897","Stim/Stim-GB/MM_M.PNG","66","","","2","exp","700","2","1","C","b","true"
"fixation-image-keyboard-release-original","1639","538137","0.0-23.0-1.157","","466.6999999899417","Stim/Stim-BG/MM_M.PNG","66","","","2","exp","700","2","1","C","b","true"
"fixation-image-keyboard-release-original","1640","540537","0.0-23.0-1.158","","387.96500000171363","Stim/Stim-BG/MM_I.PNG","86","","","2","exp","100","2","0","IC","v","true"
"fixation-image-keyboard-release-original","1641","543012","0.0-23.0-1.159","","406.9149999995716","Stim/Stim-GB/MN_M.PNG","66","","","1","exp","100","2","1","C","b","true"
"fixation-image-keyboard-release-original","1642","545612","0.0-23.0-1.160","","584.7100000246428","Stim/Stim-BG/MM_I.PNG","86","","","2","exp","400","2","0","IC","v","true"
"fixation-image-keyboard-release-original","1643","548050","0.0-23.0-1.161","","416.16500000236556","Stim/Stim-BG/MN_I.PNG","86","","","1","exp","400","2","0","IC","v","true"
"fixation-image-keyboard-release-original","1644","550385","0.0-23.0-1.162","","326.0199999785982","Stim/Stim-BG/II_I.PNG","86","","","2","exp","700","1","0","C","v","true"
"fixation-image-keyboard-release-original","1645","552715","0.0-23.0-1.163","","316.5999999619089","Stim/Stim-BG/MM_M.PNG","66","","","2","exp","100","2","1","C","b","true"
"fixation-image-keyboard-release-original","1646","555154","0.0-23.0-1.164","","420.3449999913573","Stim/Stim-BG/MN_M.PNG","66","","","1","exp","700","2","1","C","b","true"
"fixation-image-keyboard-release-original","1647","557634","0.0-23.0-1.165","","466.710000007879","Stim/Stim-GB/NM_M.PNG","66","","","1","exp","100","2","1","C","b","true"
"fixation-image-keyboard-release-original","1648","559938","0.0-23.0-1.166","","285.5950000230223","Stim/Stim-GB/MN_I.PNG","86","","","1","exp","100","2","0","IC","v","true"
"fixation-image-keyboard-release-original","1649","562226","0.0-23.0-1.167","","262.6600000075996","Stim/Stim-BG/II_M.PNG","86","","","2","exp","700","1","1","IC","b","false"
"fixation-image-keyboard-release-original","1650","564675","0.0-23.0-1.168","","418.950000021141","Stim/Stim-BG/NM_I.PNG","86","","","1","exp","400","2","0","IC","v","true"
"fixation-image-keyboard-release-original","1651","567036","0.0-23.0-1.169","","336.35499997762963","Stim/Stim-BG/NI_I.PNG","86","","","1","exp","700","1","0","C","v","true"
"fixation-image-keyboard-release-original","1652","569365","0.0-23.0-1.170","","297.56000003544614","Stim/Stim-BG/MM_I.PNG","86","","","2","exp","400","2","0","IC","v","true"
"fixation-image-keyboard-release-original","1653","571860","0.0-23.0-1.171","","478.339999972377","Stim/Stim-GB/II_M.PNG","66","","","2","exp","400","1","1","IC","b","true"
"fixation-image-keyboard-release-original","1654","574139","0.0-23.0-1.172","","264.1200000070967","Stim/Stim-BG/IN_M.PNG","66","","","1","exp","100","1","1","IC","b","true"
"fixation-image-keyboard-release-original","1655","576620","0.0-23.0-1.173","","463.7499999953434","Stim/Stim-BG/MM_I.PNG","86","","","2","exp","700","2","0","IC","v","true"
"fixation-image-keyboard-release-original","1656","579099","0.0-23.0-1.174","","459.9100000341423","Stim/Stim-GB/II_M.PNG","66","","","2","exp","700","1","1","IC","b","true"
"fixation-image-keyboard-release-original","1657","581570","0.0-23.0-1.175","","459.81000002939254","Stim/Stim-BG/MN_M.PNG","66","","","1","exp","400","2","1","C","b","true"
"fixation-image-keyboard-release-original","1658","583982","0.0-23.0-1.176","","382.05500005278736","Stim/Stim-BG/NI_M.PNG","66","","","1","exp","100","1","1","IC","b","true"
"fixation-image-keyboard-release-original","1659","586388","0.0-23.0-1.177","","369.10499999066815","Stim/Stim-BG/MM_M.PNG","66","","","2","exp","400","2","1","C","b","true"
"fixation-image-keyboard-release-original","1660","588828","0.0-23.0-1.178","","410.0999999791384","Stim/Stim-BG/MN_M.PNG","66","","","1","exp","100","2","1","C","b","true"
"fixation-image-keyboard-release-original","1661","591183","0.0-23.0-1.179","","332.5900000054389","Stim/Stim-GB/MN_I.PNG","86","","","1","exp","700","2","0","IC","v","true"
"fixation-image-keyboard-release-original","1662","593363","0.0-23.0-1.180","","161.8649999727495","Stim/Stim-GB/II_I.PNG","86","","","2","exp","400","1","0","C","v","true"
"fixation-image-keyboard-release-original","1663","595819","0.0-23.0-1.181","","437.54000001354143","Stim/Stim-BG/NM_M.PNG","66","","","1","exp","700","2","1","C","b","true"
"fixation-image-keyboard-release-original","1664","598364","0.0-23.0-1.182","","503.374999971129","Stim/Stim-BG/IN_M.PNG","66","","","1","exp","400","1","1","IC","b","true"
"fixation-image-keyboard-release-original","1665","600924","0.0-23.0-1.183","","541.2749999668449","Stim/Stim-GB/II_I.PNG","86","","","2","exp","400","1","0","C","v","true"
"fixation-image-keyboard-release-original","1666","603404","0.0-23.0-1.184","","452.15500000631437","Stim/Stim-GB/IN_M.PNG","66","","","1","exp","400","1","1","IC","b","true"
"fixation-image-keyboard-release-original","1667","605788","0.0-23.0-1.185","","365.09499995736405","Stim/Stim-BG/II_M.PNG","66","","","2","exp","700","1","1","IC","b","true"
"fixation-image-keyboard-release-original","1668","608197","0.0-23.0-1.186","","385.3800000506453","Stim/Stim-GB/IN_M.PNG","66","","","1","exp","700","1","1","IC","b","true"
"fixation-image-keyboard-release-original","1669","610614","0.0-23.0-1.187","","394.8850000160746","Stim/Stim-BG/NI_M.PNG","66","","","1","exp","700","1","1","IC","b","true"
"fixation-image-keyboard-release-original","1670","612967","0.0-23.0-1.188","","332.1449999930337","Stim/Stim-GB/MN_I.PNG","66","","","1","exp","400","2","0","IC","v","false"
"fixation-image-keyboard-release-original","1671","615341","0.0-23.0-1.189","","355.0349999568425","Stim/Stim-GB/II_M.PNG","66","","","2","exp","100","1","1","IC","b","true"
"fixation-image-keyboard-release-original","1672","617717","0.0-23.0-1.190","","348.78500003833324","Stim/Stim-BG/MN_I.PNG","86","","","1","exp","400","2","0","IC","v","true"
"fixation-image-keyboard-release-original","1673","620063","0.0-23.0-1.191","","326.17499999469146","Stim/Stim-GB/MM_M.PNG","66","","","2","exp","400","2","1","C","b","true"
"call-function","1674","621070","0.0-24.0","","","","","","","","","","","","","",""
"survey-html-form","1675","625770","0.0-25.0","","4680.935000011232","","","{""hands2"":""Right""}","","","","","","","","",""
"html-keyboard-response","1676","630857","0.0-26.0","","5082.789999956731","<p><h1>This is the end of the experiment.</h1></p><p>Please <a href='Debrief.pdf' target='_blank'>Click Here</a> (this will open a new window) to read more about the study.</p><p>Press ENTER to end the experiment (you will be sent to Prolific - if something goes wrong, the completion code for this study is: 3F11CBBF).</p>","13","","","","","","","","","",""
