"trial_type","trial_index","time_elapsed","internal_node_id","value","rt","stimulus","key_press","responses","success","hand","test","gap","finger","cue","con","correct_response","correct"
"pavlovia","0","7","0.0-0.0","","","","","","","","","","","","","",""
"call-function","1","8","0.0-1.0","","","","","","","","","","","","","",""
"html-keyboard-response","2","133895","0.0-2.0","","133885.0000000093","<div class = 'my_window'><p><h1>Welcome!</h1><br><p><p>This experiment is adminterested by Carl Michael Galang (McMaster University), Dr. Emiel Cracco (Ghent University), Dr. Marcel Brass (Humboldt University of Berlin), & Dr. Sukhvinder Obhi (McMaster University).</p><p>The purpose of this study is to explore basic perceptual processing mechanisms.</p><p>Information gathered during this study will be written up for publication in an academic journal. While there are no direct benefits to you taking part in this study (other than learning more about the research topic and getting paid on Prolific), the results of this study will provide us with a better understanding of perceptual and sensory processes. To learn about this study, particularly in the terms of any associated risks or harms, how confidentiality and anonymity will be handled, withdrawal procedures, incentives that are promised, how to obtain information about the results, etc., please read the accompanying letter of information - <a href='LOI.pdf' target='_blank'>Click Here</a> (this will open a new window).</p><p>This study should take around 10min to complete.</p><p>If you have questions or need more information about the study itself, please contact me at: galangc@mcmaster.ca. This study has been reviewed by the McMaster University Research Ethics Board and received ethics clearance. If you have concerns or questions about your rights as a participant or about the way the study is conducted, please contact the McMaster Research Ethics Secretariat at ethicsoffice@mcmaster.ca.</p><br><p><h1>CONSENT</h1></p><p>I have read the information presented in the letter of information and I agree to participate in this study.</p><p>By pressing Enter, I consent to the above.<p>","13","","","","","","","","","",""
"survey-html-form","3","144199","0.0-3.0","","10300.999999977648","","","{""1"":""5d1d3cd5f18c6c001a7dfd12""}","","","","","","","","",""
"fullscreen","4","149000","0.0-4.0","","","","","","true","","","","","","","",""
"call-function","5","149001","0.0-5.0","","","","","","","","","","","","","",""
"html-keyboard-response","6","203749","0.0-6.0","","54741.999999969266","<div class = 'my_window'><h1>Instructions</h1><p>Your task in this experiment is to respond to the letters I or M as they appear on the screen. Unlike most experiments, your task will be to <strong><u>release</u></strong> keys (not push).</p><p>Before each trial starts, please ensure that you keep the <strong><u>V key</u></strong> and <strong><u>B key</u></strong> depressed with your <strong><u>right index finger</u></strong> on the <strong><u>V key</u></strong> and your <strong><u>right middle finger</u></strong> on the <strong><u>B key</u></strong> (see image below). Responses on this experiment will consist of lifting your <strong><u>right index finger</u></strong> to release the <strong><u>V key</u></strong> if you see the letter <strong><u>I</u></strong> or lifting your <strong><u>right middle finger</u></strong> to release the <strong><u>B key</u></strong> if you see the letter <strong><u>M</u></strong> as fast as you can. It is important that you <strong><u>only use your right hand</u></strong> to do the task.</p><p><img src='keyboard_img.png'></p><p>While you complete this task, there will be a couple of hands moving in the background. Ignore them and focus on the task.</p><p>Press ENTER to continue.</p></div>","13","","","","","","","","","",""
"html-keyboard-response","7","221093","0.0-7.0","","17341.999999945983","<div class = 'my_window'><h1>Practice</h1><p>You will first do a practice phase. In the practice phase, you will get feedback on your performance. The practice phase contains 10 trials, but will add an extra trial every time you respond incorrectly.</p><p><p>Before each trial starts, please ensure that you keep the <strong><u>V key</u></strong> and <strong><u>B key</u></strong> depressed with your <strong><u>right index finger</u></strong> on the <strong><u>V key</u></strong> and your <strong><u>right middle finger</u></strong> on the <strong><u>B key</u></strong> (see image below). Responses on this experiment will consist of lifting your <strong><u>right index finger</u></strong> to release the <strong><u>V key</u></strong> if you see the letter <strong><u>I</u></strong> or lifting your <strong><u>right middle finger</u></strong> to release the <strong><u>B key</u></strong> if you see the letter <strong><u>M</u></strong> as fast as you can. It is important that you <strong><u>only use your right hand</u></strong> to do the task.</p><p><img src='keyboard_img.png'></p><p>While you complete this task, there will be a couple of hands moving in the background. Ignore them and focus on the task.</p><p>This is a reaction time experiment, so please try to respond as fast as possible while at the same time minimizing mistakes.</p><p>Press ENTER to begin.</p></div>","13","","","","","","","","","",""
"fixation-image-keyboard-release-original","636","225957","0.0-8.0-1.0","","1153.00000004936","Stim/Stim-BG/II_M.PNG","66","","","2","exp","700","1","1","IC","b","true"
"html-keyboard-response","637","227061","0.0-8.0-2.0","","null","<p> CORRECT </p>","null","","","","","","","","","",""
"fixation-image-keyboard-release-original","638","228853","0.0-9.0-1.0","","788.9999999897555","Stim/Stim-GB/NM_I.PNG","86","","","1","exp","700","2","0","IC","v","true"
"html-keyboard-response","639","229978","0.0-9.0-2.0","","null","<p> CORRECT </p>","null","","","","","","","","","",""
"fixation-image-keyboard-release-original","640","231540","0.0-10.0-1.0","","554.0000000037253","Stim/Stim-GB/IN_M.PNG","66","","","1","exp","400","1","1","IC","b","true"
"html-keyboard-response","641","232642","0.0-10.0-2.0","","null","<p> CORRECT </p>","null","","","","","","","","","",""
"fixation-image-keyboard-release-original","642","234164","0.0-11.0-1.0","","508.00000003073364","Stim/Stim-GB/II_M.PNG","66","","","2","exp","400","1","1","IC","b","true"
"html-keyboard-response","643","235275","0.0-11.0-2.0","","null","<p> CORRECT </p>","null","","","","","","","","","",""
"fixation-image-keyboard-release-original","644","236820","0.0-12.0-1.0","","530.9999999590218","Stim/Stim-BG/MM_M.PNG","66","","","2","exp","400","2","1","C","b","true"
"html-keyboard-response","645","237921","0.0-12.0-2.0","","null","<p> CORRECT </p>","null","","","","","","","","","",""
"fixation-image-keyboard-release-original","663","239620","0.0-13.0-1.0","","625","Stim/Stim-BG/MN_M.PNG","66","","","1","exp","700","2","1","C","b","true"
"html-keyboard-response","664","240720","0.0-13.0-2.0","","null","<p> CORRECT </p>","null","","","","","","","","","",""
"fixation-image-keyboard-release-original","665","242196","0.0-14.0-1.0","","463.00000010523945","Stim/Stim-BG/MM_M.PNG","66","","","2","exp","700","2","1","C","b","true"
"html-keyboard-response","666","243321","0.0-14.0-2.0","","null","<p> CORRECT </p>","null","","","","","","","","","",""
"fixation-image-keyboard-release-original","667","244740","0.0-15.0-1.0","","403.0000000493601","Stim/Stim-BG/II_M.PNG","66","","","2","exp","400","1","1","IC","b","true"
"html-keyboard-response","668","245852","0.0-15.0-2.0","","null","<p> CORRECT </p>","null","","","","","","","","","",""
"fixation-image-keyboard-release-original","669","247269","0.0-16.0-1.0","","402.00000000186265","Stim/Stim-GB/IN_M.PNG","66","","","1","exp","400","1","1","IC","b","true"
"html-keyboard-response","670","248377","0.0-16.0-2.0","","null","<p> CORRECT </p>","null","","","","","","","","","",""
"fixation-image-keyboard-release-original","671","249892","0.0-17.0-1.0","","499.00000006891787","Stim/Stim-BG/MN_I.PNG","66","","","1","exp","400","2","0","IC","v","false"
"html-keyboard-response","672","251003","0.0-17.0-2.0","","null","<p> INCORRECT </p>","null","","","","","","","","","",""
"fixation-image-keyboard-release-original","673","252676","0.0-17.1-1.1","","663.0000000586733","Stim/Stim-GB/NM_I.PNG","86","","","1","exp","700","2","0","IC","v","true"
"html-keyboard-response","674","253784","0.0-17.1-2.1","","null","<p> CORRECT </p>","null","","","","","","","","","",""
"call-function","675","253785","0.0-18.0","","","","","","","","","","","","","",""
"survey-html-form","676","260484","0.0-19.0","","6694.000000017695","","","{""hands"":""Right""}","","","","","","","","",""
"html-keyboard-response","677","267285","0.0-20.0","","6799.999999930151","If you are using <strong><u>just</u></strong> your <strong></u>right hand</u></strong>, then good job! If not, please do so in the main part of the experiment.<br><br>Press Enter to continue","13","","","","","","","","","",""
"html-keyboard-response","678","273717","0.0-21.0","","6430.999999982305","<div class = 'my_window'><h1>Main Trials</h1><p>Good Job! We will now begin the main trials. In the main trials, you will <strong>not</strong> get feedback. There are 192 trials overall. You will get a self-paced break every 48 trials.</p><p>Instructions Reminder: <p>Before each trial starts, please ensure that you keep the <strong><u>V key</u></strong> and <strong><u>B key</u></strong> depressed with your <strong><u>right index finger</u></strong> on the <strong><u>V key</u></strong> and your <strong><u>right middle finger</u></strong> on the <strong><u>B key</u></strong> (see image below). Responses on this experiment will consist of lifting your <strong><u>right index finger</u></strong> to release the <strong><u>V key</u></strong> if you see the letter <strong><u>I</u></strong> or lifting your <strong><u>right middle finger</u></strong> to release the <strong><u>B key</u></strong> if you see the letter <strong><u>M</u></strong> as fast as you can. It is important that you <strong><u>only use your right hand</u></strong> to do the task.</p><p><img src='keyboard_img.png'></p><p>While you complete this task, there will be a couple of hands moving in the background. Ignore them and focus on the task.</p><p>Remember: this is a reaction time experiment, so please try to respond as fast as possible while at the same time minimizing mistakes.</p><p>Press ENTER to begin.</p></div>","13","","","","","","","","","",""
"call-function","679","273718","0.0-22.0","","","","","","","","","","","","","",""
"fixation-image-keyboard-release-original","907","276532","0.0-23.0-1.0","","836.9999999413267","Stim/Stim-BG/IN_M.PNG","66","","","1","exp","700","1","1","IC","b","true"
"fixation-image-keyboard-release-original","908","279188","0.0-23.0-1.1","","635.0000000093132","Stim/Stim-GB/MN_I.PNG","86","","","1","exp","100","2","0","IC","v","true"
"fixation-image-keyboard-release-original","909","281700","0.0-23.0-1.2","","501.00000004749745","Stim/Stim-BG/IN_I.PNG","86","","","1","exp","100","1","0","C","v","true"
"fixation-image-keyboard-release-original","910","284292","0.0-23.0-1.3","","573.9999999059364","Stim/Stim-GB/NI_I.PNG","86","","","1","exp","100","1","0","C","v","true"
"fixation-image-keyboard-release-original","911","286788","0.0-23.0-1.4","","484.99999998603016","Stim/Stim-BG/MM_I.PNG","86","","","2","exp","700","2","0","IC","v","true"
"fixation-image-keyboard-release-original","912","289204","0.0-23.0-1.5","","410.9999999636784","Stim/Stim-GB/MM_I.PNG","86","","","2","exp","100","2","0","IC","v","true"
"fixation-image-keyboard-release-original","913","291716","0.0-23.0-1.6","","488.9999999431893","Stim/Stim-BG/NM_I.PNG","86","","","1","exp","700","2","0","IC","v","true"
"fixation-image-keyboard-release-original","914","294292","0.0-23.0-1.7","","551.9999999087304","Stim/Stim-GB/II_M.PNG","66","","","2","exp","100","1","1","IC","b","true"
"fixation-image-keyboard-release-original","915","297028","0.0-23.0-1.8","","716.9999999459833","Stim/Stim-GB/II_I.PNG","86","","","2","exp","400","1","0","C","v","true"
"fixation-image-keyboard-release-original","916","299524","0.0-23.0-1.9","","483.0000000074506","Stim/Stim-GB/NI_M.PNG","66","","","1","exp","400","1","1","IC","b","true"
"fixation-image-keyboard-release-original","917","302229","0.0-23.0-1.10","","697.0000000437722","Stim/Stim-BG/NM_I.PNG","86","","","1","exp","700","2","0","IC","v","true"
"fixation-image-keyboard-release-original","918","305060","0.0-23.0-1.11","","814.9999999441206","Stim/Stim-GB/NM_M.PNG","66","","","1","exp","400","2","1","C","b","true"
"fixation-image-keyboard-release-original","919","307620","0.0-23.0-1.12","","545.0000000419095","Stim/Stim-GB/II_I.PNG","86","","","2","exp","400","1","0","C","v","true"
"fixation-image-keyboard-release-original","920","310132","0.0-23.0-1.13","","500","Stim/Stim-BG/MM_I.PNG","86","","","2","exp","100","2","0","IC","v","true"
"fixation-image-keyboard-release-original","921","312804","0.0-23.0-1.14","","661.0000000800937","Stim/Stim-BG/NM_M.PNG","66","","","1","exp","100","2","1","C","b","true"
"fixation-image-keyboard-release-original","922","315220","0.0-23.0-1.15","","403.9999999804422","Stim/Stim-GB/MM_I.PNG","86","","","2","exp","700","2","0","IC","v","true"
"fixation-image-keyboard-release-original","923","317732","0.0-23.0-1.16","","503.00000002607703","Stim/Stim-BG/MM_I.PNG","86","","","2","exp","700","2","0","IC","v","true"
"fixation-image-keyboard-release-original","924","320340","0.0-23.0-1.17","","597.9999999981374","Stim/Stim-GB/IN_M.PNG","66","","","1","exp","700","1","1","IC","b","true"
"fixation-image-keyboard-release-original","925","322868","0.0-23.0-1.18","","518.999999971129","Stim/Stim-GB/II_I.PNG","86","","","2","exp","100","1","0","C","v","true"
"fixation-image-keyboard-release-original","926","325428","0.0-23.0-1.19","","545.0000000419095","Stim/Stim-GB/NI_M.PNG","66","","","1","exp","700","1","1","IC","b","true"
"fixation-image-keyboard-release-original","927","328068","0.0-23.0-1.20","","619.0000000642613","Stim/Stim-BG/NI_I.PNG","86","","","1","exp","100","1","0","C","v","true"
"fixation-image-keyboard-release-original","928","330500","0.0-23.0-1.21","","418.00000006332994","Stim/Stim-BG/MN_I.PNG","86","","","1","exp","400","2","0","IC","v","true"
"fixation-image-keyboard-release-original","929","332996","0.0-23.0-1.22","","476.0000000242144","Stim/Stim-GB/NM_I.PNG","86","","","1","exp","100","2","0","IC","v","true"
"fixation-image-keyboard-release-original","930","335428","0.0-23.0-1.23","","415.0000000372529","Stim/Stim-BG/MN_I.PNG","86","","","1","exp","700","2","0","IC","v","true"
"fixation-image-keyboard-release-original","931","337892","0.0-23.0-1.24","","450.0000000698492","Stim/Stim-BG/NM_I.PNG","86","","","1","exp","100","2","0","IC","v","true"
"fixation-image-keyboard-release-original","932","340292","0.0-23.0-1.25","","388.9999999664724","Stim/Stim-BG/II_I.PNG","86","","","2","exp","400","1","0","C","v","true"
"fixation-image-keyboard-release-original","933","342789","0.0-23.0-1.26","","482.00000007636845","Stim/Stim-GB/MM_I.PNG","86","","","2","exp","100","2","0","IC","v","true"
"fixation-image-keyboard-release-original","934","345332","0.0-23.0-1.27","","527.9999999329448","Stim/Stim-BG/MM_I.PNG","86","","","2","exp","100","2","0","IC","v","true"
"fixation-image-keyboard-release-original","935","347876","0.0-23.0-1.28","","515.0000000139698","Stim/Stim-GB/II_M.PNG","66","","","2","exp","100","1","1","IC","b","true"
"fixation-image-keyboard-release-original","936","350389","0.0-23.0-1.29","","494.9999999953434","Stim/Stim-BG/MM_I.PNG","86","","","2","exp","100","2","0","IC","v","true"
"fixation-image-keyboard-release-original","937","352836","0.0-23.0-1.30","","439.99999994412065","Stim/Stim-BG/II_I.PNG","86","","","2","exp","700","1","0","C","v","true"
"fixation-image-keyboard-release-original","938","355460","0.0-23.0-1.31","","601.0000000242144","Stim/Stim-GB/II_M.PNG","66","","","2","exp","400","1","1","IC","b","true"
"fixation-image-keyboard-release-original","939","358036","0.0-23.0-1.32","","552.0000000251457","Stim/Stim-GB/MM_M.PNG","66","","","2","exp","100","2","1","C","b","true"
"fixation-image-keyboard-release-original","940","360660","0.0-23.0-1.33","","603.9999999338761","Stim/Stim-BG/NI_I.PNG","86","","","1","exp","100","1","0","C","v","true"
"fixation-image-keyboard-release-original","941","363540","0.0-23.0-1.34","","858.9999999385327","Stim/Stim-BG/NM_M.PNG","66","","","1","exp","400","2","1","C","b","true"
"fixation-image-keyboard-release-original","942","366116","0.0-23.0-1.35","","552.0000000251457","Stim/Stim-BG/MN_I.PNG","86","","","1","exp","700","2","0","IC","v","true"
"fixation-image-keyboard-release-original","943","369076","0.0-23.0-1.36","","950.0000000698492","Stim/Stim-BG/MM_M.PNG","66","","","2","exp","700","2","1","C","b","true"
"fixation-image-keyboard-release-original","944","371796","0.0-23.0-1.37","","694.0000000176951","Stim/Stim-GB/NI_I.PNG","86","","","1","exp","700","1","0","C","v","true"
"fixation-image-keyboard-release-original","945","374532","0.0-23.0-1.38","","721.9999999506399","Stim/Stim-BG/MM_M.PNG","66","","","2","exp","100","2","1","C","b","true"
"fixation-image-keyboard-release-original","946","377156","0.0-23.0-1.39","","599.0000000456348","Stim/Stim-GB/II_M.PNG","66","","","2","exp","100","1","1","IC","b","true"
"fixation-image-keyboard-release-original","947","379796","0.0-23.0-1.40","","629.0000000735745","Stim/Stim-GB/MN_I.PNG","86","","","1","exp","400","2","0","IC","v","true"
"fixation-image-keyboard-release-original","948","382532","0.0-23.0-1.41","","726.9999999552965","Stim/Stim-GB/NI_M.PNG","66","","","1","exp","100","1","1","IC","b","true"
"fixation-image-keyboard-release-original","949","385028","0.0-23.0-1.42","","474.99999997671694","Stim/Stim-GB/NM_M.PNG","66","","","1","exp","700","2","1","C","b","true"
"fixation-image-keyboard-release-original","950","387636","0.0-23.0-1.43","","591.0000000149012","Stim/Stim-BG/MM_I.PNG","86","","","2","exp","400","2","0","IC","v","true"
"fixation-image-keyboard-release-original","951","390197","0.0-23.0-1.44","","540.999999968335","Stim/Stim-GB/II_I.PNG","86","","","2","exp","400","1","0","C","v","true"
"fixation-image-keyboard-release-original","952","392852","0.0-23.0-1.45","","631.9999999832362","Stim/Stim-BG/NI_M.PNG","66","","","1","exp","400","1","1","IC","b","true"
"fixation-image-keyboard-release-original","953","395348","0.0-23.0-1.46","","479.0000000502914","Stim/Stim-GB/NM_I.PNG","66","","","1","exp","100","2","0","IC","v","false"
"fixation-image-keyboard-release-original","954","397764","0.0-23.0-1.47","","393.999999971129","Stim/Stim-BG/II_I.PNG","86","","","2","exp","700","1","0","C","v","true"
"html-keyboard-response","955","520757","0.0-23.0-2.47-0.47","","121986.00000003353","Take a break. Feel free to start again by pressing Enter.","13","","","","","","","","","",""
"fixation-image-keyboard-release-original","1488","524612","0.0-23.0-1.48","","604.0000000502914","Stim/Stim-BG/MM_M.PNG","66","","","2","exp","100","2","1","C","b","true"
"fixation-image-keyboard-release-original","1489","527028","0.0-23.0-1.49","","397.99999992828816","Stim/Stim-BG/NI_M.PNG","66","","","1","exp","700","1","1","IC","b","true"
"fixation-image-keyboard-release-original","1490","529476","0.0-23.0-1.50","","437.99999996554106","Stim/Stim-BG/MM_I.PNG","86","","","2","exp","400","2","0","IC","v","true"
"fixation-image-keyboard-release-original","1491","531924","0.0-23.0-1.51","","423.9999999990687","Stim/Stim-GB/IN_I.PNG","86","","","1","exp","400","1","0","C","v","true"
"fixation-image-keyboard-release-original","1492","534372","0.0-23.0-1.52","","427.0000000251457","Stim/Stim-GB/IN_M.PNG","86","","","1","exp","100","1","1","IC","b","false"
"fixation-image-keyboard-release-original","1493","536964","0.0-23.0-1.53","","576.0000000009313","Stim/Stim-GB/MN_M.PNG","66","","","1","exp","700","2","1","C","b","true"
"fixation-image-keyboard-release-original","1494","539572","0.0-23.0-1.54","","591.0000000149012","Stim/Stim-BG/MM_M.PNG","66","","","2","exp","700","2","1","C","b","true"
"fixation-image-keyboard-release-original","1495","542005","0.0-23.0-1.55","","422.0000000204891","Stim/Stim-GB/NI_M.PNG","66","","","1","exp","700","1","1","IC","b","true"
"fixation-image-keyboard-release-original","1496","544372","0.0-23.0-1.56","","339.0000000363216","Stim/Stim-GB/IN_I.PNG","86","","","1","exp","700","1","0","C","v","true"
"fixation-image-keyboard-release-original","1497","546885","0.0-23.0-1.57","","507.9999999143183","Stim/Stim-GB/MM_I.PNG","86","","","2","exp","700","2","0","IC","v","true"
"fixation-image-keyboard-release-original","1498","549413","0.0-23.0-1.58","","517.9999999236315","Stim/Stim-GB/II_M.PNG","66","","","2","exp","700","1","1","IC","b","true"
"fixation-image-keyboard-release-original","1499","551924","0.0-23.0-1.59","","504.0000000735745","Stim/Stim-GB/MM_M.PNG","66","","","2","exp","400","2","1","C","b","true"
"fixation-image-keyboard-release-original","1500","554484","0.0-23.0-1.60","","543.9999999944121","Stim/Stim-GB/IN_M.PNG","66","","","1","exp","400","1","1","IC","b","true"
"fixation-image-keyboard-release-original","1501","556980","0.0-23.0-1.61","","472.99999999813735","Stim/Stim-BG/IN_I.PNG","86","","","1","exp","700","1","0","C","v","true"
"fixation-image-keyboard-release-original","1502","559524","0.0-23.0-1.62","","531.0000000754371","Stim/Stim-BG/II_I.PNG","86","","","2","exp","400","1","0","C","v","true"
"fixation-image-keyboard-release-original","1503","561956","0.0-23.0-1.63","","409.00000010151416","Stim/Stim-BG/II_I.PNG","86","","","2","exp","100","1","0","C","v","true"
"fixation-image-keyboard-release-original","1504","564420","0.0-23.0-1.64","","442.9999999701977","Stim/Stim-GB/MM_I.PNG","86","","","2","exp","400","2","0","IC","v","true"
"fixation-image-keyboard-release-original","1505","566932","0.0-23.0-1.65","","485.9999999171123","Stim/Stim-BG/IN_M.PNG","66","","","1","exp","400","1","1","IC","b","true"
"fixation-image-keyboard-release-original","1506","569492","0.0-23.0-1.66","","540.999999968335","Stim/Stim-BG/II_M.PNG","66","","","2","exp","100","1","1","IC","b","true"
"fixation-image-keyboard-release-original","1507","572132","0.0-23.0-1.67","","617.0000000856817","Stim/Stim-BG/NI_I.PNG","86","","","1","exp","400","1","0","C","v","true"
"fixation-image-keyboard-release-original","1508","574788","0.0-23.0-1.68","","631.9999999832362","Stim/Stim-BG/IN_M.PNG","66","","","1","exp","400","1","1","IC","b","true"
"fixation-image-keyboard-release-original","1509","577364","0.0-23.0-1.69","","555.9999999823049","Stim/Stim-GB/MM_M.PNG","66","","","2","exp","100","2","1","C","b","true"
"fixation-image-keyboard-release-original","1510","579876","0.0-23.0-1.70","","500","Stim/Stim-BG/MM_M.PNG","66","","","2","exp","100","2","1","C","b","true"
"fixation-image-keyboard-release-original","1511","582325","0.0-23.0-1.71","","446.99999992735684","Stim/Stim-BG/MM_M.PNG","66","","","2","exp","400","2","1","C","b","true"
"fixation-image-keyboard-release-original","1512","584917","0.0-23.0-1.72","","577.0000000484288","Stim/Stim-GB/MM_I.PNG","86","","","2","exp","400","2","0","IC","v","true"
"fixation-image-keyboard-release-original","1513","587477","0.0-23.0-1.73","","533.9999999850988","Stim/Stim-BG/NM_I.PNG","86","","","1","exp","400","2","0","IC","v","true"
"fixation-image-keyboard-release-original","1514","589957","0.0-23.0-1.74","","467.0000000623986","Stim/Stim-BG/NI_I.PNG","86","","","1","exp","700","1","0","C","v","true"
"fixation-image-keyboard-release-original","1515","592485","0.0-23.0-1.75","","510.0000000093132","Stim/Stim-BG/MM_M.PNG","66","","","2","exp","700","2","1","C","b","true"
"fixation-image-keyboard-release-original","1516","594965","0.0-23.0-1.76","","464.9999999674037","Stim/Stim-GB/MN_I.PNG","86","","","1","exp","700","2","0","IC","v","true"
"fixation-image-keyboard-release-original","1517","597461","0.0-23.0-1.77","","479.0000000502914","Stim/Stim-GB/II_I.PNG","86","","","2","exp","100","1","0","C","v","true"
"fixation-image-keyboard-release-original","1518","599942","0.0-23.0-1.78","","461.00000001024455","Stim/Stim-BG/MM_I.PNG","86","","","2","exp","400","2","0","IC","v","true"
"fixation-image-keyboard-release-original","1519","602565","0.0-23.0-1.79","","607.9999998910353","Stim/Stim-GB/MM_M.PNG","66","","","2","exp","700","2","1","C","b","true"
"fixation-image-keyboard-release-original","1520","605093","0.0-23.0-1.80","","508.00000003073364","Stim/Stim-GB/IN_M.PNG","66","","","1","exp","100","1","1","IC","b","true"
"fixation-image-keyboard-release-original","1521","607669","0.0-23.0-1.81","","547.0000000204891","Stim/Stim-GB/MM_I.PNG","86","","","2","exp","400","2","0","IC","v","true"
"fixation-image-keyboard-release-original","1522","610230","0.0-23.0-1.82","","542.0000000158325","Stim/Stim-BG/MM_M.PNG","66","","","2","exp","400","2","1","C","b","true"
"fixation-image-keyboard-release-original","1523","612725","0.0-23.0-1.83","","483.0000000074506","Stim/Stim-BG/MM_M.PNG","66","","","2","exp","400","2","1","C","b","true"
"fixation-image-keyboard-release-original","1524","615189","0.0-23.0-1.84","","442.00000003911555","Stim/Stim-GB/NI_M.PNG","66","","","1","exp","100","1","1","IC","b","true"
"fixation-image-keyboard-release-original","1525","617717","0.0-23.0-1.85","","509.9999998928979","Stim/Stim-BG/IN_I.PNG","86","","","1","exp","700","1","0","C","v","true"
"fixation-image-keyboard-release-original","1526","620246","0.0-23.0-1.86","","513.0000000353903","Stim/Stim-BG/NM_M.PNG","66","","","1","exp","700","2","1","C","b","true"
"fixation-image-keyboard-release-original","1527","622709","0.0-23.0-1.87","","445.9999999962747","Stim/Stim-GB/II_M.PNG","66","","","2","exp","100","1","1","IC","b","true"
"fixation-image-keyboard-release-original","1528","625238","0.0-23.0-1.88","","516.9999999925494","Stim/Stim-BG/MN_M.PNG","66","","","1","exp","400","2","1","C","b","true"
"fixation-image-keyboard-release-original","1529","627621","0.0-23.0-1.89","","372.0000000903383","Stim/Stim-BG/II_M.PNG","66","","","2","exp","700","1","1","IC","b","true"
"fixation-image-keyboard-release-original","1530","630101","0.0-23.0-1.90","","476.0000000242144","Stim/Stim-GB/MN_M.PNG","66","","","1","exp","100","2","1","C","b","true"
"fixation-image-keyboard-release-original","1531","632661","0.0-23.0-1.91","","555.9999999823049","Stim/Stim-BG/II_I.PNG","86","","","2","exp","400","1","0","C","v","true"
"fixation-image-keyboard-release-original","1532","635205","0.0-23.0-1.92","","540.999999968335","Stim/Stim-BG/MM_M.PNG","66","","","2","exp","100","2","1","C","b","true"
"fixation-image-keyboard-release-original","1533","637781","0.0-23.0-1.93","","565.9999999916181","Stim/Stim-GB/MM_I.PNG","86","","","2","exp","100","2","0","IC","v","true"
"fixation-image-keyboard-release-original","1534","640469","0.0-23.0-1.94","","660.0000000325963","Stim/Stim-BG/MN_M.PNG","66","","","1","exp","700","2","1","C","b","true"
"fixation-image-keyboard-release-original","1535","643013","0.0-23.0-1.95","","526.0000000707805","Stim/Stim-BG/MN_I.PNG","86","","","1","exp","100","2","0","IC","v","true"
"html-keyboard-response","1536","680822","0.0-23.0-2.95-0.95","","36806.00000009872","Take a break. Feel free to start again by pressing Enter.","13","","","","","","","","","",""
"fixation-image-keyboard-release-original","1766","683477","0.0-23.0-1.96","","691.9999999227002","Stim/Stim-BG/MN_M.PNG","66","","","1","exp","400","2","1","C","b","true"
"fixation-image-keyboard-release-original","1767","686069","0.0-23.0-1.97","","567.0000000391155","Stim/Stim-GB/II_M.PNG","66","","","2","exp","700","1","1","IC","b","true"
"fixation-image-keyboard-release-original","1768","688517","0.0-23.0-1.98","","432.0000000298023","Stim/Stim-GB/II_M.PNG","66","","","2","exp","400","1","1","IC","b","true"
"fixation-image-keyboard-release-original","1769","690965","0.0-23.0-1.99","","444.99999994877726","Stim/Stim-BG/MN_M.PNG","66","","","1","exp","700","2","1","C","b","true"
"fixation-image-keyboard-release-original","1770","693478","0.0-23.0-1.100","","484.99999998603016","Stim/Stim-GB/MN_M.PNG","66","","","1","exp","700","2","1","C","b","true"
"fixation-image-keyboard-release-original","1771","695957","0.0-23.0-1.101","","478.00000000279397","Stim/Stim-BG/NI_M.PNG","66","","","1","exp","700","1","1","IC","b","true"
"fixation-image-keyboard-release-original","1772","698453","0.0-23.0-1.102","","481.99999995995313","Stim/Stim-GB/II_M.PNG","66","","","2","exp","700","1","1","IC","b","true"
"fixation-image-keyboard-release-original","1773","700981","0.0-23.0-1.103","","510.0000000093132","Stim/Stim-BG/II_I.PNG","86","","","2","exp","100","1","0","C","v","true"
"fixation-image-keyboard-release-original","1774","703364","0.0-23.0-1.104","","368.99999994784594","Stim/Stim-BG/IN_I.PNG","86","","","1","exp","100","1","0","C","v","true"
"fixation-image-keyboard-release-original","1775","705860","0.0-23.0-1.105","","487.00000008102506","Stim/Stim-BG/II_M.PNG","66","","","2","exp","100","1","1","IC","b","true"
"fixation-image-keyboard-release-original","1776","708468","0.0-23.0-1.106","","592.0000000623986","Stim/Stim-GB/MM_I.PNG","86","","","2","exp","700","2","0","IC","v","true"
"fixation-image-keyboard-release-original","1777","711060","0.0-23.0-1.107","","570.9999999962747","Stim/Stim-BG/IN_M.PNG","66","","","1","exp","100","1","1","IC","b","true"
"fixation-image-keyboard-release-original","1778","713492","0.0-23.0-1.108","","425.99999997764826","Stim/Stim-GB/IN_M.PNG","66","","","1","exp","700","1","1","IC","b","true"
"fixation-image-keyboard-release-original","1779","715892","0.0-23.0-1.109","","386.0000000568107","Stim/Stim-GB/NI_M.PNG","66","","","1","exp","400","1","1","IC","b","true"
"fixation-image-keyboard-release-original","1780","718452","0.0-23.0-1.110","","548.9999999990687","Stim/Stim-BG/MM_I.PNG","86","","","2","exp","700","2","0","IC","v","true"
"fixation-image-keyboard-release-original","1781","720868","0.0-23.0-1.111","","400.9999999543652","Stim/Stim-GB/NM_I.PNG","86","","","1","exp","700","2","0","IC","v","true"
"fixation-image-keyboard-release-original","1782","723428","0.0-23.0-1.112","","550.0000000465661","Stim/Stim-GB/II_M.PNG","66","","","2","exp","700","1","1","IC","b","true"
"fixation-image-keyboard-release-original","1783","726004","0.0-23.0-1.113","","545.0000000419095","Stim/Stim-BG/MM_I.PNG","86","","","2","exp","700","2","0","IC","v","true"
"fixation-image-keyboard-release-original","1784","728500","0.0-23.0-1.114","","482.00000007636845","Stim/Stim-GB/IN_I.PNG","86","","","1","exp","100","1","0","C","v","true"
"fixation-image-keyboard-release-original","1785","730916","0.0-23.0-1.115","","403.0000000493601","Stim/Stim-GB/IN_I.PNG","86","","","1","exp","700","1","0","C","v","true"
"fixation-image-keyboard-release-original","1786","733508","0.0-23.0-1.116","","576.0000000009313","Stim/Stim-GB/MM_M.PNG","66","","","2","exp","700","2","1","C","b","true"
"fixation-image-keyboard-release-original","1787","736004","0.0-23.0-1.117","","486.99999996460974","Stim/Stim-BG/MM_M.PNG","66","","","2","exp","400","2","1","C","b","true"
"fixation-image-keyboard-release-original","1788","738548","0.0-23.0-1.118","","542.0000000158325","Stim/Stim-BG/II_M.PNG","66","","","2","exp","400","1","1","IC","b","true"
"fixation-image-keyboard-release-original","1789","741028","0.0-23.0-1.119","","449.99999995343387","Stim/Stim-BG/II_M.PNG","66","","","2","exp","700","1","1","IC","b","true"
"fixation-image-keyboard-release-original","1790","743556","0.0-23.0-1.120","","520.0000000186265","Stim/Stim-BG/MM_I.PNG","86","","","2","exp","100","2","0","IC","v","true"
"fixation-image-keyboard-release-original","1791","746084","0.0-23.0-1.121","","513.9999999664724","Stim/Stim-BG/NI_M.PNG","66","","","1","exp","100","1","1","IC","b","true"
"fixation-image-keyboard-release-original","1792","748644","0.0-23.0-1.122","","542.0000000158325","Stim/Stim-GB/MN_M.PNG","66","","","1","exp","100","2","1","C","b","true"
"fixation-image-keyboard-release-original","1793","751140","0.0-23.0-1.123","","481.99999995995313","Stim/Stim-GB/MM_M.PNG","66","","","2","exp","400","2","1","C","b","true"
"fixation-image-keyboard-release-original","1794","753684","0.0-23.0-1.124","","524.9999999068677","Stim/Stim-GB/II_I.PNG","86","","","2","exp","700","1","0","C","v","true"
"fixation-image-keyboard-release-original","1795","756213","0.0-23.0-1.125","","515.999999945052","Stim/Stim-BG/NI_I.PNG","86","","","1","exp","700","1","0","C","v","true"
"fixation-image-keyboard-release-original","1796","758660","0.0-23.0-1.126","","418.99999999441206","Stim/Stim-BG/IN_I.PNG","86","","","1","exp","400","1","0","C","v","true"
"fixation-image-keyboard-release-original","1797","761300","0.0-23.0-1.127","","620.9999999264255","Stim/Stim-GB/MN_M.PNG","66","","","1","exp","400","2","1","C","b","true"
"fixation-image-keyboard-release-original","1798","763732","0.0-23.0-1.128","","427.0000000251457","Stim/Stim-BG/NI_M.PNG","66","","","1","exp","400","1","1","IC","b","true"
"fixation-image-keyboard-release-original","1799","766308","0.0-23.0-1.129","","565.000000060536","Stim/Stim-BG/IN_M.PNG","66","","","1","exp","700","1","1","IC","b","true"
"fixation-image-keyboard-release-original","1800","768724","0.0-23.0-1.130","","408.99999998509884","Stim/Stim-BG/NM_M.PNG","66","","","1","exp","700","2","1","C","b","true"
"fixation-image-keyboard-release-original","1801","771316","0.0-23.0-1.131","","569.0000000176951","Stim/Stim-BG/II_I.PNG","86","","","2","exp","700","1","0","C","v","true"
"fixation-image-keyboard-release-original","1802","773813","0.0-23.0-1.132","","484.00000005494803","Stim/Stim-GB/NM_I.PNG","86","","","1","exp","400","2","0","IC","v","true"
"fixation-image-keyboard-release-original","1803","776388","0.0-23.0-1.133","","561.9999999180436","Stim/Stim-GB/MM_M.PNG","66","","","2","exp","400","2","1","C","b","true"
"fixation-image-keyboard-release-original","1804","778884","0.0-23.0-1.134","","478.00000000279397","Stim/Stim-GB/NM_M.PNG","66","","","1","exp","100","2","1","C","b","true"
"fixation-image-keyboard-release-original","1805","781348","0.0-23.0-1.135","","444.00000001769513","Stim/Stim-BG/II_M.PNG","66","","","2","exp","100","1","1","IC","b","true"
"fixation-image-keyboard-release-original","1806","783892","0.0-23.0-1.136","","525.0000000232831","Stim/Stim-BG/II_I.PNG","86","","","2","exp","400","1","0","C","v","true"
"fixation-image-keyboard-release-original","1807","786324","0.0-23.0-1.137","","414.9999999208376","Stim/Stim-GB/NM_M.PNG","66","","","1","exp","100","2","1","C","b","true"
"fixation-image-keyboard-release-original","1808","788804","0.0-23.0-1.138","","475.00000009313226","Stim/Stim-GB/NM_M.PNG","66","","","1","exp","400","2","1","C","b","true"
"fixation-image-keyboard-release-original","1809","791348","0.0-23.0-1.139","","519.0000000875443","Stim/Stim-GB/II_I.PNG","86","","","2","exp","700","1","0","C","v","true"
"fixation-image-keyboard-release-original","1810","793812","0.0-23.0-1.140","","457.9999999841675","Stim/Stim-BG/NM_I.PNG","86","","","1","exp","100","2","0","IC","v","true"
"fixation-image-keyboard-release-original","1811","796341","0.0-23.0-1.141","","510.99999994039536","Stim/Stim-BG/II_M.PNG","66","","","2","exp","400","1","1","IC","b","true"
"fixation-image-keyboard-release-original","1812","798932","0.0-23.0-1.142","","581.9999999366701","Stim/Stim-GB/MM_M.PNG","66","","","2","exp","400","2","1","C","b","true"
"fixation-image-keyboard-release-original","1813","801460","0.0-23.0-1.143","","516.0000000614673","Stim/Stim-BG/II_M.PNG","66","","","2","exp","700","1","1","IC","b","true"
"html-keyboard-response","1814","920437","0.0-23.0-2.143-0.143","","117966.99999994598","Take a break. Feel free to start again by pressing Enter.","13","","","","","","","","","",""
"fixation-image-keyboard-release-original","2160","923444","0.0-23.0-1.144","","544.9999999254942","Stim/Stim-BG/II_I.PNG","86","","","2","exp","700","1","0","C","v","true"
"fixation-image-keyboard-release-original","2161","926020","0.0-23.0-1.145","","554.9999999348074","Stim/Stim-GB/II_M.PNG","66","","","2","exp","400","1","1","IC","b","true"
"fixation-image-keyboard-release-original","2162","928517","0.0-23.0-1.146","","484.99999998603016","Stim/Stim-BG/MN_I.PNG","86","","","1","exp","400","2","0","IC","v","true"
"fixation-image-keyboard-release-original","2163","931092","0.0-23.0-1.147","","557.0000000298023","Stim/Stim-GB/II_I.PNG","86","","","2","exp","100","1","0","C","v","true"
"fixation-image-keyboard-release-original","2164","933604","0.0-23.0-1.148","","496.99999997392297","Stim/Stim-GB/IN_M.PNG","66","","","1","exp","400","1","1","IC","b","true"
"fixation-image-keyboard-release-original","2165","936132","0.0-23.0-1.149","","510.0000000093132","Stim/Stim-GB/IN_I.PNG","86","","","1","exp","100","1","0","C","v","true"
"fixation-image-keyboard-release-original","2166","938580","0.0-23.0-1.150","","430.99999998230487","Stim/Stim-GB/MM_M.PNG","66","","","2","exp","700","2","1","C","b","true"
"fixation-image-keyboard-release-original","2167","941205","0.0-23.0-1.151","","599.9999999767169","Stim/Stim-BG/MN_M.PNG","66","","","1","exp","100","2","1","C","b","true"
"fixation-image-keyboard-release-original","2168","943765","0.0-23.0-1.152","","544.9999999254942","Stim/Stim-GB/MM_I.PNG","86","","","2","exp","400","2","0","IC","v","true"
"fixation-image-keyboard-release-original","2169","946276","0.0-23.0-1.153","","486.99999996460974","Stim/Stim-GB/MN_M.PNG","66","","","1","exp","400","2","1","C","b","true"
"fixation-image-keyboard-release-original","2170","948805","0.0-23.0-1.154","","522.0000001136214","Stim/Stim-GB/NI_I.PNG","86","","","1","exp","400","1","0","C","v","true"
"fixation-image-keyboard-release-original","2171","951380","0.0-23.0-1.155","","547.0000000204891","Stim/Stim-BG/IN_M.PNG","66","","","1","exp","100","1","1","IC","b","true"
"fixation-image-keyboard-release-original","2172","953956","0.0-23.0-1.156","","560.0000000558794","Stim/Stim-GB/NI_I.PNG","86","","","1","exp","100","1","0","C","v","true"
"fixation-image-keyboard-release-original","2173","956405","0.0-23.0-1.157","","440.00000006053597","Stim/Stim-BG/MN_M.PNG","66","","","1","exp","100","2","1","C","b","true"
"fixation-image-keyboard-release-original","2174","958804","0.0-23.0-1.158","","379.0000000735745","Stim/Stim-BG/IN_I.PNG","86","","","1","exp","400","1","0","C","v","true"
"fixation-image-keyboard-release-original","2175","961188","0.0-23.0-1.159","","366.99999996926636","Stim/Stim-GB/II_M.PNG","66","","","2","exp","400","1","1","IC","b","true"
"fixation-image-keyboard-release-original","2176","963749","0.0-23.0-1.160","","535.9999999636784","Stim/Stim-GB/MM_M.PNG","66","","","2","exp","100","2","1","C","b","true"
"fixation-image-keyboard-release-original","2177","966148","0.0-23.0-1.161","","375","Stim/Stim-GB/II_I.PNG","86","","","2","exp","700","1","0","C","v","true"
"fixation-image-keyboard-release-original","2178","968500","0.0-23.0-1.162","","341.00000001490116","Stim/Stim-BG/NI_M.PNG","66","","","1","exp","100","1","1","IC","b","true"
"fixation-image-keyboard-release-original","2179","970852","0.0-23.0-1.163","","346.9999999506399","Stim/Stim-BG/MN_I.PNG","86","","","1","exp","100","2","0","IC","v","true"
"fixation-image-keyboard-release-original","2180","973220","0.0-23.0-1.164","","347.99999999813735","Stim/Stim-BG/II_M.PNG","66","","","2","exp","400","1","1","IC","b","true"
"fixation-image-keyboard-release-original","2181","975796","0.0-23.0-1.165","","567.0000000391155","Stim/Stim-GB/MM_M.PNG","66","","","2","exp","700","2","1","C","b","true"
"fixation-image-keyboard-release-original","2182","978324","0.0-23.0-1.166","","517.9999999236315","Stim/Stim-BG/II_I.PNG","86","","","2","exp","100","1","0","C","v","true"
"fixation-image-keyboard-release-original","2183","980756","0.0-23.0-1.167","","423.9999999990687","Stim/Stim-BG/NM_M.PNG","66","","","1","exp","100","2","1","C","b","true"
"fixation-image-keyboard-release-original","2184","983188","0.0-23.0-1.168","","418.99999999441206","Stim/Stim-GB/II_I.PNG","86","","","2","exp","700","1","0","C","v","true"
"fixation-image-keyboard-release-original","2185","985732","0.0-23.0-1.169","","535.0000000325963","Stim/Stim-GB/NM_I.PNG","86","","","1","exp","700","2","0","IC","v","true"
"fixation-image-keyboard-release-original","2186","988228","0.0-23.0-1.170","","481.000000028871","Stim/Stim-GB/NM_I.PNG","86","","","1","exp","400","2","0","IC","v","true"
"fixation-image-keyboard-release-original","2187","990661","0.0-23.0-1.171","","417.0000000158325","Stim/Stim-BG/II_M.PNG","66","","","2","exp","100","1","1","IC","b","true"
"fixation-image-keyboard-release-original","2188","993060","0.0-23.0-1.172","","385.99999994039536","Stim/Stim-GB/MN_I.PNG","86","","","1","exp","400","2","0","IC","v","true"
"fixation-image-keyboard-release-original","2189","995412","0.0-23.0-1.173","","348.9999999292195","Stim/Stim-GB/NM_M.PNG","66","","","1","exp","700","2","1","C","b","true"
"fixation-image-keyboard-release-original","2190","997796","0.0-23.0-1.174","","361.0000000335276","Stim/Stim-GB/II_I.PNG","86","","","2","exp","400","1","0","C","v","true"
"fixation-image-keyboard-release-original","2191","1000372","0.0-23.0-1.175","","560.9999999869615","Stim/Stim-GB/MN_I.PNG","86","","","1","exp","100","2","0","IC","v","true"
"fixation-image-keyboard-release-original","2192","1002901","0.0-23.0-1.176","","515.0000000139698","Stim/Stim-BG/NM_I.PNG","86","","","1","exp","400","2","0","IC","v","true"
"fixation-image-keyboard-release-original","2193","1005332","0.0-23.0-1.177","","415.0000000372529","Stim/Stim-BG/NM_M.PNG","66","","","1","exp","400","2","1","C","b","true"
"fixation-image-keyboard-release-original","2194","1007668","0.0-23.0-1.178","","319.00000001769513","Stim/Stim-GB/MM_I.PNG","86","","","2","exp","100","2","0","IC","v","true"
"fixation-image-keyboard-release-original","2195","1010260","0.0-23.0-1.179","","565.9999999916181","Stim/Stim-GB/II_I.PNG","86","","","2","exp","100","1","0","C","v","true"
"fixation-image-keyboard-release-original","2196","1012708","0.0-23.0-1.180","","443.000000086613","Stim/Stim-GB/MM_I.PNG","86","","","2","exp","700","2","0","IC","v","true"
"fixation-image-keyboard-release-original","2197","1015300","0.0-23.0-1.181","","579.0000000270084","Stim/Stim-BG/II_M.PNG","66","","","2","exp","700","1","1","IC","b","true"
"fixation-image-keyboard-release-original","2198","1017860","0.0-23.0-1.182","","538.0000000586733","Stim/Stim-BG/MM_M.PNG","66","","","2","exp","700","2","1","C","b","true"
"fixation-image-keyboard-release-original","2199","1020420","0.0-23.0-1.183","","533.9999999850988","Stim/Stim-BG/MM_I.PNG","86","","","2","exp","400","2","0","IC","v","true"
"fixation-image-keyboard-release-original","2200","1022868","0.0-23.0-1.184","","436.9999999180436","Stim/Stim-GB/IN_I.PNG","86","","","1","exp","400","1","0","C","v","true"
"fixation-image-keyboard-release-original","2201","1025396","0.0-23.0-1.185","","513.9999999664724","Stim/Stim-GB/NI_I.PNG","86","","","1","exp","400","1","0","C","v","true"
"fixation-image-keyboard-release-original","2202","1028022","0.0-23.0-1.186","","604.9999999813735","Stim/Stim-BG/II_M.PNG","66","","","2","exp","400","1","1","IC","b","true"
"fixation-image-keyboard-release-original","2203","1030484","0.0-23.0-1.187","","445.9999999962747","Stim/Stim-GB/MN_I.PNG","86","","","1","exp","700","2","0","IC","v","true"
"fixation-image-keyboard-release-original","2204","1033044","0.0-23.0-1.188","","542.0000000158325","Stim/Stim-GB/NI_I.PNG","86","","","1","exp","700","1","0","C","v","true"
"fixation-image-keyboard-release-original","2205","1035476","0.0-23.0-1.189","","414.9999999208376","Stim/Stim-BG/II_I.PNG","86","","","2","exp","100","1","0","C","v","true"
"fixation-image-keyboard-release-original","2206","1038020","0.0-23.0-1.190","","532.9999999376014","Stim/Stim-GB/MM_M.PNG","66","","","2","exp","100","2","1","C","b","true"
"fixation-image-keyboard-release-original","2207","1040612","0.0-23.0-1.191","","570.0000000651926","Stim/Stim-BG/NI_I.PNG","86","","","1","exp","400","1","0","C","v","true"
"call-function","2208","1041621","0.0-24.0","","","","","","","","","","","","","",""
"survey-html-form","2209","1048269","0.0-25.0","","6641.999999992549","","","{""hands2"":""Right""}","","","","","","","","",""
"html-keyboard-response","2210","1065590","0.0-26.0","","17319.999999948777","<p><h1>This is the end of the experiment.</h1></p><p>Please <a href='Debrief.pdf' target='_blank'>Click Here</a> (this will open a new window) to read more about the study.</p><p>Press ENTER to end the experiment (you will be sent to Prolific - if something goes wrong, the completion code for this study is: 3F11CBBF).</p>","13","","","","","","","","","",""
