"trial_type","trial_index","time_elapsed","internal_node_id","value","rt","stimulus","key_press","responses","success","hand","test","gap","finger","cue","con","correct_response","correct"
"pavlovia","0","14","0.0-0.0","","","","","","","","","","","","","",""
"call-function","1","16","0.0-1.0","","","","","","","","","","","","","",""
"html-keyboard-response","2","40850","0.0-2.0","","40832.85999999862","<div class = 'my_window'><p><h1>Welcome!</h1><br><p><p>This experiment is adminterested by Carl Michael Galang (McMaster University), Dr. Emiel Cracco (Ghent University), Dr. Marcel Brass (Humboldt University of Berlin), & Dr. Sukhvinder Obhi (McMaster University).</p><p>The purpose of this study is to explore basic perceptual processing mechanisms.</p><p>Information gathered during this study will be written up for publication in an academic journal. While there are no direct benefits to you taking part in this study (other than learning more about the research topic and getting paid on Prolific), the results of this study will provide us with a better understanding of perceptual and sensory processes. To learn about this study, particularly in the terms of any associated risks or harms, how confidentiality and anonymity will be handled, withdrawal procedures, incentives that are promised, how to obtain information about the results, etc., please read the accompanying letter of information - <a href='LOI.pdf' target='_blank'>Click Here</a> (this will open a new window).</p><p>This study should take around 10min to complete.</p><p>If you have questions or need more information about the study itself, please contact me at: galangc@mcmaster.ca. This study has been reviewed by the McMaster University Research Ethics Board and received ethics clearance. If you have concerns or questions about your rights as a participant or about the way the study is conducted, please contact the McMaster Research Ethics Secretariat at ethicsoffice@mcmaster.ca.</p><br><p><h1>CONSENT</h1></p><p>I have read the information presented in the letter of information and I agree to participate in this study.</p><p>By pressing Enter, I consent to the above.<p>","13","","","","","","","","","",""
"survey-html-form","3","49220","0.0-3.0","","8368.729999998322","","","{""1"":""5ffc58b66496f8025379ee77""}","","","","","","","","",""
"fullscreen","4","52709","0.0-4.0","","","","","","true","","","","","","","",""
"call-function","5","52710","0.0-5.0","","","","","","","","","","","","","",""
"html-keyboard-response","6","98802","0.0-6.0","","46090.714999998454","<div class = 'my_window'><h1>Instructions</h1><p>Your task in this experiment is to respond to the letters I or M as they appear on the screen. Unlike most experiments, your task will be to <strong><u>release</u></strong> keys (not push).</p><p>Before each trial starts, please ensure that you keep the <strong><u>V key</u></strong> and <strong><u>B key</u></strong> depressed with your <strong><u>right index finger</u></strong> on the <strong><u>V key</u></strong> and your <strong><u>right middle finger</u></strong> on the <strong><u>B key</u></strong> (see image below). Responses on this experiment will consist of lifting your <strong><u>right index finger</u></strong> to release the <strong><u>V key</u></strong> if you see the letter <strong><u>I</u></strong> or lifting your <strong><u>right middle finger</u></strong> to release the <strong><u>B key</u></strong> if you see the letter <strong><u>M</u></strong> as fast as you can. It is important that you <strong><u>only use your right hand</u></strong> to do the task.</p><p><img src='keyboard_img.png'></p><p>While you complete this task, there will be a couple of hands moving in the background. Ignore them and focus on the task.</p><p>Press ENTER to continue.</p></div>","13","","","","","","","","","",""
"html-keyboard-response","7","104197","0.0-7.0","","5393.149999999878","<div class = 'my_window'><h1>Practice</h1><p>You will first do a practice phase. In the practice phase, you will get feedback on your performance. The practice phase contains 10 trials, but will add an extra trial every time you respond incorrectly.</p><p><p>Before each trial starts, please ensure that you keep the <strong><u>V key</u></strong> and <strong><u>B key</u></strong> depressed with your <strong><u>right index finger</u></strong> on the <strong><u>V key</u></strong> and your <strong><u>right middle finger</u></strong> on the <strong><u>B key</u></strong> (see image below). Responses on this experiment will consist of lifting your <strong><u>right index finger</u></strong> to release the <strong><u>V key</u></strong> if you see the letter <strong><u>I</u></strong> or lifting your <strong><u>right middle finger</u></strong> to release the <strong><u>B key</u></strong> if you see the letter <strong><u>M</u></strong> as fast as you can. It is important that you <strong><u>only use your right hand</u></strong> to do the task.</p><p><img src='keyboard_img.png'></p><p>While you complete this task, there will be a couple of hands moving in the background. Ignore them and focus on the task.</p><p>This is a reaction time experiment, so please try to respond as fast as possible while at the same time minimizing mistakes.</p><p>Press ENTER to begin.</p></div>","13","","","","","","","","","",""
"fixation-image-keyboard-release-original","293","107670","0.0-8.0-1.0","","962.6749999988533","Stim/Stim-BG/NI_I.PNG","86","","","1","exp","400","1","0","C","v","true"
"html-keyboard-response","294","108774","0.0-8.0-2.0","","null","<p> CORRECT </p>","null","","","","","","","","","",""
"fixation-image-keyboard-release-original","295","110369","0.0-9.0-1.0","","590.4999999984284","Stim/Stim-BG/MM_I.PNG","86","","","2","exp","100","2","0","IC","v","true"
"html-keyboard-response","296","111472","0.0-9.0-2.0","","null","<p> CORRECT </p>","null","","","","","","","","","",""
"fixation-image-keyboard-release-original","297","113016","0.0-10.0-1.0","","541.3649999973131","Stim/Stim-BG/II_M.PNG","66","","","2","exp","700","1","1","IC","b","true"
"html-keyboard-response","298","114118","0.0-10.0-2.0","","null","<p> CORRECT </p>","null","","","","","","","","","",""
"fixation-image-keyboard-release-original","299","115525","0.0-11.0-1.0","","403.23999999964144","Stim/Stim-BG/NM_M.PNG","66","","","1","exp","700","2","1","C","b","true"
"html-keyboard-response","300","116629","0.0-11.0-2.0","","null","<p> CORRECT </p>","null","","","","","","","","","",""
"fixation-image-keyboard-release-original","301","118036","0.0-12.0-1.0","","404.6249999992142","Stim/Stim-GB/II_M.PNG","66","","","2","exp","100","1","1","IC","b","true"
"html-keyboard-response","302","119140","0.0-12.0-2.0","","null","<p> CORRECT </p>","null","","","","","","","","","",""
"fixation-image-keyboard-release-original","303","120525","0.0-13.0-1.0","","383.6750000009488","Stim/Stim-BG/MM_M.PNG","66","","","2","exp","100","2","1","C","b","true"
"html-keyboard-response","304","121628","0.0-13.0-2.0","","null","<p> CORRECT </p>","null","","","","","","","","","",""
"fixation-image-keyboard-release-original","305","123161","0.0-14.0-1.0","","529.7600000012608","Stim/Stim-BG/NI_I.PNG","86","","","1","exp","400","1","0","C","v","true"
"html-keyboard-response","306","124264","0.0-14.0-2.0","","null","<p> CORRECT </p>","null","","","","","","","","","",""
"fixation-image-keyboard-release-original","307","125646","0.0-15.0-1.0","","377.4649999977555","Stim/Stim-GB/MN_M.PNG","66","","","1","exp","100","2","1","C","b","true"
"html-keyboard-response","308","126748","0.0-15.0-2.0","","null","<p> CORRECT </p>","null","","","","","","","","","",""
"fixation-image-keyboard-release-original","309","128114","0.0-16.0-1.0","","361.1749999981839","Stim/Stim-BG/NM_M.PNG","66","","","1","exp","400","2","1","C","b","true"
"html-keyboard-response","310","129217","0.0-16.0-2.0","","null","<p> CORRECT </p>","null","","","","","","","","","",""
"fixation-image-keyboard-release-original","311","130654","0.0-17.0-1.0","","435.1200000019162","Stim/Stim-GB/NI_I.PNG","86","","","1","exp","100","1","0","C","v","true"
"html-keyboard-response","312","131755","0.0-17.0-2.0","","null","<p> CORRECT </p>","null","","","","","","","","","",""
"call-function","313","131756","0.0-18.0","","","","","","","","","","","","","",""
"survey-html-form","314","137506","0.0-19.0","","5748.8350000021455","","","{""hands"":""Right""}","","","","","","","","",""
"html-keyboard-response","315","142925","0.0-20.0","","5418.849999998201","If you are using <strong><u>just</u></strong> your <strong></u>right hand</u></strong>, then good job! If not, please do so in the main part of the experiment.<br><br>Press Enter to continue","13","","","","","","","","","",""
"html-keyboard-response","316","145762","0.0-21.0","","2835.0849999987986","<div class = 'my_window'><h1>Main Trials</h1><p>Good Job! We will now begin the main trials. In the main trials, you will <strong>not</strong> get feedback. There are 192 trials overall. You will get a self-paced break every 48 trials.</p><p>Instructions Reminder: <p>Before each trial starts, please ensure that you keep the <strong><u>V key</u></strong> and <strong><u>B key</u></strong> depressed with your <strong><u>right index finger</u></strong> on the <strong><u>V key</u></strong> and your <strong><u>right middle finger</u></strong> on the <strong><u>B key</u></strong> (see image below). Responses on this experiment will consist of lifting your <strong><u>right index finger</u></strong> to release the <strong><u>V key</u></strong> if you see the letter <strong><u>I</u></strong> or lifting your <strong><u>right middle finger</u></strong> to release the <strong><u>B key</u></strong> if you see the letter <strong><u>M</u></strong> as fast as you can. It is important that you <strong><u>only use your right hand</u></strong> to do the task.</p><p><img src='keyboard_img.png'></p><p>While you complete this task, there will be a couple of hands moving in the background. Ignore them and focus on the task.</p><p>Remember: this is a reaction time experiment, so please try to respond as fast as possible while at the same time minimizing mistakes.</p><p>Press ENTER to begin.</p></div>","13","","","","","","","","","",""
"call-function","317","145763","0.0-22.0","","","","","","","","","","","","","",""
"fixation-image-keyboard-release-original","782","149723","0.0-23.0-1.0","","489.77000000013504","Stim/Stim-BG/MN_M.PNG","66","","","1","exp","700","2","1","C","b","true"
"fixation-image-keyboard-release-original","783","152476","0.0-23.0-1.1","","750.4549999976007","Stim/Stim-GB/MM_I.PNG","86","","","2","exp","700","2","0","IC","v","true"
"fixation-image-keyboard-release-original","784","155639","0.0-23.0-1.2","","1160.8050000031653","Stim/Stim-BG/II_M.PNG","86","","","2","exp","100","1","1","IC","b","false"
"fixation-image-keyboard-release-original","785","158459","0.0-23.0-1.3","","815.4949999989185","Stim/Stim-GB/II_I.PNG","86","","","2","exp","400","1","0","C","v","true"
"fixation-image-keyboard-release-original","786","160939","0.0-23.0-1.4","","475.85500000059255","Stim/Stim-GB/MN_M.PNG","66","","","1","exp","700","2","1","C","b","true"
"fixation-image-keyboard-release-original","787","163427","0.0-23.0-1.5","","484.60999999952037","Stim/Stim-GB/MM_M.PNG","66","","","2","exp","700","2","1","C","b","true"
"fixation-image-keyboard-release-original","788","165862","0.0-23.0-1.6","","432.4500000002445","Stim/Stim-GB/II_M.PNG","66","","","2","exp","100","1","1","IC","b","true"
"fixation-image-keyboard-release-original","789","168292","0.0-23.0-1.7","","426.61500000031083","Stim/Stim-GB/MM_M.PNG","66","","","2","exp","100","2","1","C","b","true"
"fixation-image-keyboard-release-original","790","170811","0.0-23.0-1.8","","516.5099999976519","Stim/Stim-GB/MN_I.PNG","86","","","1","exp","100","2","0","IC","v","true"
"fixation-image-keyboard-release-original","791","173235","0.0-23.0-1.9","","419.35000000012224","Stim/Stim-GB/NM_I.PNG","66","","","1","exp","700","2","0","IC","v","false"
"fixation-image-keyboard-release-original","792","175703","0.0-23.0-1.10","","464.9649999992107","Stim/Stim-GB/NM_M.PNG","66","","","1","exp","100","2","1","C","b","true"
"fixation-image-keyboard-release-original","793","178662","0.0-23.0-1.11","","957.2049999987939","Stim/Stim-BG/MM_M.PNG","66","","","2","exp","700","2","1","C","b","true"
"fixation-image-keyboard-release-original","794","181041","0.0-23.0-1.12","","374.8599999998987","Stim/Stim-GB/MM_M.PNG","66","","","2","exp","400","2","1","C","b","true"
"fixation-image-keyboard-release-original","795","183396","0.0-23.0-1.13","","352.36000000077183","Stim/Stim-GB/NM_M.PNG","66","","","1","exp","400","2","1","C","b","true"
"fixation-image-keyboard-release-original","796","185735","0.0-23.0-1.14","","336.37499999895226","Stim/Stim-BG/MM_M.PNG","66","","","2","exp","400","2","1","C","b","true"
"fixation-image-keyboard-release-original","797","188065","0.0-23.0-1.15","","326.61499999812804","Stim/Stim-GB/MN_M.PNG","66","","","1","exp","100","2","1","C","b","true"
"fixation-image-keyboard-release-original","798","191017","0.0-23.0-1.16","","947.199999998702","Stim/Stim-GB/MN_I.PNG","86","","","1","exp","400","2","0","IC","v","true"
"fixation-image-keyboard-release-original","799","193393","0.0-23.0-1.17","","372.55999999979394","Stim/Stim-BG/NI_M.PNG","66","","","1","exp","100","1","1","IC","b","true"
"fixation-image-keyboard-release-original","800","195814","0.0-23.0-1.18","","418.02000000097905","Stim/Stim-GB/MN_M.PNG","66","","","1","exp","400","2","1","C","b","true"
"fixation-image-keyboard-release-original","801","198245","0.0-23.0-1.19","","426.4149999980873","Stim/Stim-BG/MM_M.PNG","66","","","2","exp","100","2","1","C","b","true"
"fixation-image-keyboard-release-original","802","200764","0.0-23.0-1.20","","516.5500000002794","Stim/Stim-BG/NI_I.PNG","86","","","1","exp","700","1","0","C","v","true"
"fixation-image-keyboard-release-original","803","203156","0.0-23.0-1.21","","389.4299999992654","Stim/Stim-GB/NI_M.PNG","66","","","1","exp","400","1","1","IC","b","true"
"fixation-image-keyboard-release-original","804","205592","0.0-23.0-1.22","","430.5500000009488","Stim/Stim-BG/II_M.PNG","66","","","2","exp","400","1","1","IC","b","true"
"fixation-image-keyboard-release-original","805","208054","0.0-23.0-1.23","","458.5399999996298","Stim/Stim-GB/IN_I.PNG","86","","","1","exp","700","1","0","C","v","true"
"fixation-image-keyboard-release-original","806","210594","0.0-23.0-1.24","","536.7499999993015","Stim/Stim-GB/IN_I.PNG","66","","","1","exp","100","1","0","C","v","false"
"fixation-image-keyboard-release-original","852","213719","0.0-23.0-1.25","","897.4049999997078","Stim/Stim-GB/NM_M.PNG","66","","","1","exp","400","2","1","C","b","true"
"fixation-image-keyboard-release-original","853","216078","0.0-23.0-1.26","","355.7099999998172","Stim/Stim-GB/IN_M.PNG","66","","","1","exp","400","1","1","IC","b","true"
"fixation-image-keyboard-release-original","854","218589","0.0-23.0-1.27","","506.18499999836786","Stim/Stim-BG/MM_I.PNG","86","","","2","exp","700","2","0","IC","v","true"
"fixation-image-keyboard-release-original","855","221095","0.0-23.0-1.28","","501.7900000020745","Stim/Stim-BG/MN_M.PNG","66","","","1","exp","100","2","1","C","b","true"
"fixation-image-keyboard-release-original","856","223551","0.0-23.0-1.29","","451.8099999986589","Stim/Stim-BG/MN_I.PNG","86","","","1","exp","700","2","0","IC","v","true"
"fixation-image-keyboard-release-original","857","225902","0.0-23.0-1.30","","347.16000000116765","Stim/Stim-BG/MM_I.PNG","66","","","2","exp","100","2","0","IC","v","false"
"fixation-image-keyboard-release-original","858","228364","0.0-23.0-1.31","","456.8650000001071","Stim/Stim-BG/MM_I.PNG","86","","","2","exp","400","2","0","IC","v","true"
"fixation-image-keyboard-release-original","859","230846","0.0-23.0-1.32","","479.20499999963795","Stim/Stim-BG/II_I.PNG","86","","","2","exp","100","1","0","C","v","true"
"fixation-image-keyboard-release-original","860","233246","0.0-23.0-1.33","","396.14000000074157","Stim/Stim-BG/MM_M.PNG","66","","","2","exp","400","2","1","C","b","true"
"fixation-image-keyboard-release-original","861","235627","0.0-23.0-1.34","","378.3050000020012","Stim/Stim-GB/NM_I.PNG","86","","","1","exp","400","2","0","IC","v","true"
"fixation-image-keyboard-release-original","862","238175","0.0-23.0-1.35","","541.8549999994866","Stim/Stim-GB/IN_I.PNG","86","","","1","exp","400","1","0","C","v","true"
"fixation-image-keyboard-release-original","863","240659","0.0-23.0-1.36","","480.1000000006752","Stim/Stim-GB/NM_I.PNG","86","","","1","exp","700","2","0","IC","v","true"
"fixation-image-keyboard-release-original","864","243051","0.0-23.0-1.37","","388.6950000014622","Stim/Stim-BG/II_I.PNG","86","","","2","exp","700","1","0","C","v","true"
"fixation-image-keyboard-release-original","865","245516","0.0-23.0-1.38","","462.53500000239","Stim/Stim-BG/II_I.PNG","86","","","2","exp","400","1","0","C","v","true"
"fixation-image-keyboard-release-original","866","248036","0.0-23.0-1.39","","517.6149999970221","Stim/Stim-GB/NI_I.PNG","86","","","1","exp","100","1","0","C","v","true"
"fixation-image-keyboard-release-original","867","250432","0.0-23.0-1.40","","391.6700000008859","Stim/Stim-BG/NM_I.PNG","86","","","1","exp","700","2","0","IC","v","true"
"fixation-image-keyboard-release-original","868","252848","0.0-23.0-1.41","","413.4849999973085","Stim/Stim-GB/IN_I.PNG","86","","","1","exp","100","1","0","C","v","true"
"fixation-image-keyboard-release-original","869","255256","0.0-23.0-1.42","","401.9499999994878","Stim/Stim-GB/II_I.PNG","86","","","2","exp","100","1","0","C","v","true"
"fixation-image-keyboard-release-original","870","257728","0.0-23.0-1.43","","468.72500000247965","Stim/Stim-GB/NI_I.PNG","86","","","1","exp","400","1","0","C","v","true"
"fixation-image-keyboard-release-original","871","260159","0.0-23.0-1.44","","426.41500000166707","Stim/Stim-BG/MM_M.PNG","66","","","2","exp","400","2","1","C","b","true"
"fixation-image-keyboard-release-original","872","262549","0.0-23.0-1.45","","387.7599999977974","Stim/Stim-GB/II_M.PNG","66","","","2","exp","700","1","1","IC","b","true"
"fixation-image-keyboard-release-original","873","264943","0.0-23.0-1.46","","388.45500000024913","Stim/Stim-BG/II_M.PNG","66","","","2","exp","400","1","1","IC","b","true"
"fixation-image-keyboard-release-original","874","267386","0.0-23.0-1.47","","437.60999999719206","Stim/Stim-BG/NM_I.PNG","86","","","1","exp","100","2","0","IC","v","true"
"html-keyboard-response","875","270987","0.0-23.0-2.47-0.47","","2598.9249999984168","Take a break. Feel free to start again by pressing Enter.","13","","","","","","","","","",""
"fixation-image-keyboard-release-original","1256","274763","0.0-23.0-1.48","","776.2949999996345","Stim/Stim-BG/MM_M.PNG","66","","","2","exp","100","2","1","C","b","true"
"fixation-image-keyboard-release-original","1257","277126","0.0-23.0-1.49","","359.8700000002282","Stim/Stim-BG/NM_M.PNG","66","","","1","exp","100","2","1","C","b","true"
"fixation-image-keyboard-release-original","1258","279617","0.0-23.0-1.50","","486.7950000006822","Stim/Stim-GB/II_M.PNG","66","","","2","exp","400","1","1","IC","b","true"
"fixation-image-keyboard-release-original","1259","282098","0.0-23.0-1.51","","476.42999999877065","Stim/Stim-BG/II_I.PNG","86","","","2","exp","400","1","0","C","v","true"
"fixation-image-keyboard-release-original","1260","284736","0.0-23.0-1.52","","635.8099999997066","Stim/Stim-BG/II_M.PNG","66","","","2","exp","400","1","1","IC","b","true"
"fixation-image-keyboard-release-original","1261","287266","0.0-23.0-1.53","","525.1200000020908","Stim/Stim-BG/MM_I.PNG","86","","","2","exp","700","2","0","IC","v","true"
"fixation-image-keyboard-release-original","1262","290163","0.0-23.0-1.54","","892.8500000002095","Stim/Stim-BG/MN_M.PNG","66","","","1","exp","400","2","1","C","b","true"
"fixation-image-keyboard-release-original","1263","292623","0.0-23.0-1.55","","457.7050000007148","Stim/Stim-BG/II_M.PNG","66","","","2","exp","100","1","1","IC","b","true"
"fixation-image-keyboard-release-original","1264","295123","0.0-23.0-1.56","","497.03000000229804","Stim/Stim-BG/NI_M.PNG","66","","","1","exp","400","1","1","IC","b","true"
"fixation-image-keyboard-release-original","1265","297494","0.0-23.0-1.57","","367.81499999779044","Stim/Stim-GB/II_M.PNG","66","","","2","exp","700","1","1","IC","b","true"
"fixation-image-keyboard-release-original","1266","299878","0.0-23.0-1.58","","379.28500000271015","Stim/Stim-GB/MM_M.PNG","66","","","2","exp","100","2","1","C","b","true"
"fixation-image-keyboard-release-original","1267","302334","0.0-23.0-1.59","","453.37500000098953","Stim/Stim-GB/MM_I.PNG","86","","","2","exp","100","2","0","IC","v","true"
"fixation-image-keyboard-release-original","1268","304849","0.0-23.0-1.60","","511.0400000012014","Stim/Stim-GB/II_I.PNG","86","","","2","exp","100","1","0","C","v","true"
"fixation-image-keyboard-release-original","1269","307277","0.0-23.0-1.61","","424.6000000020722","Stim/Stim-GB/MN_I.PNG","86","","","1","exp","700","2","0","IC","v","true"
"fixation-image-keyboard-release-original","1270","309756","0.0-23.0-1.62","","476.6600000002654","Stim/Stim-GB/II_I.PNG","86","","","2","exp","100","1","0","C","v","true"
"fixation-image-keyboard-release-original","1271","312191","0.0-23.0-1.63","","431.0249999980442","Stim/Stim-GB/MM_I.PNG","86","","","2","exp","400","2","0","IC","v","true"
"fixation-image-keyboard-release-original","1272","314631","0.0-23.0-1.64","","435.574999999546","Stim/Stim-GB/NI_I.PNG","86","","","1","exp","100","1","0","C","v","true"
"fixation-image-keyboard-release-original","1273","316992","0.0-23.0-1.65","","356.36499999964144","Stim/Stim-GB/NI_M.PNG","66","","","1","exp","100","1","1","IC","b","true"
"fixation-image-keyboard-release-original","1274","319396","0.0-23.0-1.66","","398.70499999960884","Stim/Stim-BG/IN_I.PNG","86","","","1","exp","700","1","0","C","v","true"
"fixation-image-keyboard-release-original","1275","321846","0.0-23.0-1.67","","447.0899999978137","Stim/Stim-BG/MM_I.PNG","86","","","2","exp","100","2","0","IC","v","true"
"fixation-image-keyboard-release-original","1276","324273","0.0-23.0-1.68","","422.2249999984633","Stim/Stim-BG/II_M.PNG","66","","","2","exp","700","1","1","IC","b","true"
"fixation-image-keyboard-release-original","1277","326644","0.0-23.0-1.69","","366.31000000122003","Stim/Stim-GB/II_I.PNG","86","","","2","exp","100","1","0","C","v","true"
"fixation-image-keyboard-release-original","1278","328942","0.0-23.0-1.70","","292.2500000022119","Stim/Stim-GB/II_M.PNG","66","","","2","exp","400","1","1","IC","b","true"
"fixation-image-keyboard-release-original","1279","331237","0.0-23.0-1.71","","290.38500000024214","Stim/Stim-BG/IN_I.PNG","86","","","1","exp","100","1","0","C","v","true"
"fixation-image-keyboard-release-original","1280","333580","0.0-23.0-1.72","","339.24000000115484","Stim/Stim-BG/MN_M.PNG","66","","","1","exp","700","2","1","C","b","true"
"fixation-image-keyboard-release-original","1281","335871","0.0-23.0-1.73","","288.5999999998603","Stim/Stim-BG/IN_I.PNG","86","","","1","exp","400","1","0","C","v","true"
"fixation-image-keyboard-release-original","1282","338257","0.0-23.0-1.74","","383.65999999956694","Stim/Stim-GB/MM_I.PNG","86","","","2","exp","700","2","0","IC","v","true"
"fixation-image-keyboard-release-original","1283","340722","0.0-23.0-1.75","","462.29999999923166","Stim/Stim-BG/NM_I.PNG","86","","","1","exp","100","2","0","IC","v","true"
"fixation-image-keyboard-release-original","1284","343087","0.0-23.0-1.76","","359.5550000027288","Stim/Stim-GB/NM_M.PNG","66","","","1","exp","700","2","1","C","b","true"
"fixation-image-keyboard-release-original","1285","345513","0.0-23.0-1.77","","422.78499999881024","Stim/Stim-GB/MM_I.PNG","86","","","2","exp","400","2","0","IC","v","true"
"fixation-image-keyboard-release-original","1286","347838","0.0-23.0-1.78","","321.909999998752","Stim/Stim-GB/NI_M.PNG","66","","","1","exp","100","1","1","IC","b","true"
"fixation-image-keyboard-release-original","1287","350278","0.0-23.0-1.79","","436.68500000052154","Stim/Stim-GB/II_M.PNG","66","","","2","exp","100","1","1","IC","b","true"
"fixation-image-keyboard-release-original","1288","352661","0.0-23.0-1.80","","380.26999999786494","Stim/Stim-GB/NM_M.PNG","66","","","1","exp","700","2","1","C","b","true"
"fixation-image-keyboard-release-original","1289","355031","0.0-23.0-1.81","","367.8399999990361","Stim/Stim-BG/II_I.PNG","86","","","2","exp","700","1","0","C","v","true"
"fixation-image-keyboard-release-original","1290","357439","0.0-23.0-1.82","","403.54999999905704","Stim/Stim-BG/II_M.PNG","66","","","2","exp","100","1","1","IC","b","true"
"fixation-image-keyboard-release-original","1291","359795","0.0-23.0-1.83","","352.44999999849824","Stim/Stim-GB/MN_I.PNG","86","","","1","exp","100","2","0","IC","v","true"
"fixation-image-keyboard-release-original","1292","362164","0.0-23.0-1.84","","364.68500000046333","Stim/Stim-GB/IN_I.PNG","86","","","1","exp","700","1","0","C","v","true"
"fixation-image-keyboard-release-original","1293","364668","0.0-23.0-1.85","","501.4950000004028","Stim/Stim-BG/NI_M.PNG","66","","","1","exp","400","1","1","IC","b","true"
"fixation-image-keyboard-release-original","1294","367075","0.0-23.0-1.86","","402.409999998752","Stim/Stim-GB/NI_I.PNG","66","","","1","exp","400","1","0","C","v","false"
"fixation-image-keyboard-release-original","1295","369507","0.0-23.0-1.87","","427.43999999947846","Stim/Stim-BG/NM_M.PNG","66","","","1","exp","700","2","1","C","b","true"
"fixation-image-keyboard-release-original","1296","371988","0.0-23.0-1.88","","477.49499999918044","Stim/Stim-BG/IN_M.PNG","66","","","1","exp","400","1","1","IC","b","true"
"fixation-image-keyboard-release-original","1297","374554","0.0-23.0-1.89","","562.6599999995669","Stim/Stim-BG/NI_I.PNG","86","","","1","exp","700","1","0","C","v","true"
"fixation-image-keyboard-release-original","1298","377122","0.0-23.0-1.90","","565.9400000004098","Stim/Stim-BG/NI_I.PNG","86","","","1","exp","400","1","0","C","v","true"
"fixation-image-keyboard-release-original","1299","379761","0.0-23.0-1.91","","634.3449999985751","Stim/Stim-GB/MM_M.PNG","66","","","2","exp","400","2","1","C","b","true"
"fixation-image-keyboard-release-original","1300","382301","0.0-23.0-1.92","","535.8149999993038","Stim/Stim-BG/MM_I.PNG","86","","","2","exp","100","2","0","IC","v","true"
"fixation-image-keyboard-release-original","1301","384874","0.0-23.0-1.93","","569.2199999975855","Stim/Stim-GB/MM_M.PNG","66","","","2","exp","100","2","1","C","b","true"
"fixation-image-keyboard-release-original","1302","387263","0.0-23.0-1.94","","386.1299999989569","Stim/Stim-BG/MM_I.PNG","86","","","2","exp","100","2","0","IC","v","true"
"fixation-image-keyboard-release-original","1303","389805","0.0-23.0-1.95","","539.3750000003492","Stim/Stim-BG/II_M.PNG","66","","","2","exp","700","1","1","IC","b","true"
"html-keyboard-response","1304","392884","0.0-23.0-2.95-0.95","","2078.110000002198","Take a break. Feel free to start again by pressing Enter.","13","","","","","","","","","",""
"fixation-image-keyboard-release-original","1305","394378","0.0-23.0-1.96","","491.0349999991013","Stim/Stim-GB/NI_M.PNG","66","","","1","exp","700","1","1","IC","b","true"
"fixation-image-keyboard-release-original","1306","396777","0.0-23.0-1.97","","394.159999999858","Stim/Stim-BG/IN_I.PNG","86","","","1","exp","100","1","0","C","v","true"
"fixation-image-keyboard-release-original","1307","399335","0.0-23.0-1.98","","554.599999999511","Stim/Stim-BG/IN_M.PNG","66","","","1","exp","100","1","1","IC","b","true"
"fixation-image-keyboard-release-original","1308","401791","0.0-23.0-1.99","","450.394999999844","Stim/Stim-BG/MM_I.PNG","86","","","2","exp","400","2","0","IC","v","true"
"fixation-image-keyboard-release-original","1309","404305","0.0-23.0-1.100","","511.5850000001956","Stim/Stim-BG/MN_I.PNG","86","","","1","exp","400","2","0","IC","v","true"
"fixation-image-keyboard-release-original","1310","406770","0.0-23.0-1.101","","462.30999999900814","Stim/Stim-BG/IN_I.PNG","86","","","1","exp","400","1","0","C","v","true"
"fixation-image-keyboard-release-original","1311","409269","0.0-23.0-1.102","","496.9700000000885","Stim/Stim-BG/IN_I.PNG","86","","","1","exp","700","1","0","C","v","true"
"fixation-image-keyboard-release-original","1312","411917","0.0-23.0-1.103","","643.4750000007334","Stim/Stim-GB/IN_M.PNG","66","","","1","exp","100","1","1","IC","b","true"
"fixation-image-keyboard-release-original","1313","414362","0.0-23.0-1.104","","440.8350000012433","Stim/Stim-BG/MN_I.PNG","86","","","1","exp","700","2","0","IC","v","true"
"fixation-image-keyboard-release-original","1314","416802","0.0-23.0-1.105","","436.41000000206986","Stim/Stim-BG/IN_M.PNG","66","","","1","exp","400","1","1","IC","b","true"
"fixation-image-keyboard-release-original","1315","419298","0.0-23.0-1.106","","492.2900000020163","Stim/Stim-BG/MM_I.PNG","86","","","2","exp","700","2","0","IC","v","true"
"fixation-image-keyboard-release-original","1316","421846","0.0-23.0-1.107","","545.3100000013364","Stim/Stim-BG/MM_M.PNG","66","","","2","exp","100","2","1","C","b","true"
"fixation-image-keyboard-release-original","1317","424283","0.0-23.0-1.108","","435.93499999766937","Stim/Stim-BG/MN_I.PNG","86","","","1","exp","100","2","0","IC","v","true"
"fixation-image-keyboard-release-original","1318","426876","0.0-23.0-1.109","","590.6349999968079","Stim/Stim-GB/II_I.PNG","86","","","2","exp","400","1","0","C","v","true"
"fixation-image-keyboard-release-original","1319","429309","0.0-23.0-1.110","","430.0900000016554","Stim/Stim-GB/II_I.PNG","86","","","2","exp","700","1","0","C","v","true"
"fixation-image-keyboard-release-original","1320","431608","0.0-23.0-1.111","","294.69500000047265","Stim/Stim-GB/NI_I.PNG","86","","","1","exp","700","1","0","C","v","true"
"fixation-image-keyboard-release-original","1321","434026","0.0-23.0-1.112","","413.71000000071945","Stim/Stim-BG/II_M.PNG","86","","","2","exp","100","1","1","IC","b","false"
"fixation-image-keyboard-release-original","1322","436524","0.0-23.0-1.113","","493.76000000117347","Stim/Stim-BG/NM_I.PNG","86","","","1","exp","400","2","0","IC","v","true"
"fixation-image-keyboard-release-original","1323","438996","0.0-23.0-1.114","","468.55999999755295","Stim/Stim-BG/II_I.PNG","86","","","2","exp","100","1","0","C","v","true"
"fixation-image-keyboard-release-original","1324","441800","0.0-23.0-1.115","","798.1499999986845","Stim/Stim-BG/MN_M.PNG","66","","","1","exp","400","2","1","C","b","true"
"fixation-image-keyboard-release-original","1325","444202","0.0-23.0-1.116","","398.2749999995576","Stim/Stim-GB/NM_I.PNG","86","","","1","exp","100","2","0","IC","v","true"
"fixation-image-keyboard-release-original","1326","446671","0.0-23.0-1.117","","467.04500000126427","Stim/Stim-BG/MM_M.PNG","66","","","2","exp","400","2","1","C","b","true"
"fixation-image-keyboard-release-original","1327","449142","0.0-23.0-1.118","","467.3450000009034","Stim/Stim-GB/MM_M.PNG","66","","","2","exp","400","2","1","C","b","true"
"fixation-image-keyboard-release-original","1328","451507","0.0-23.0-1.119","","361.85499999916647","Stim/Stim-BG/II_I.PNG","86","","","2","exp","100","1","0","C","v","true"
"fixation-image-keyboard-release-original","1329","453970","0.0-23.0-1.120","","459.54499999783","Stim/Stim-GB/MM_M.PNG","66","","","2","exp","400","2","1","C","b","true"
"fixation-image-keyboard-release-original","1330","456478","0.0-23.0-1.121","","505.0250000022352","Stim/Stim-GB/MM_I.PNG","86","","","2","exp","400","2","0","IC","v","true"
"fixation-image-keyboard-release-original","1331","459098","0.0-23.0-1.122","","616.6799999992363","Stim/Stim-GB/II_I.PNG","86","","","2","exp","400","1","0","C","v","true"
"fixation-image-keyboard-release-original","1332","461849","0.0-23.0-1.123","","746.3100000022678","Stim/Stim-BG/NM_M.PNG","66","","","1","exp","700","2","1","C","b","true"
"fixation-image-keyboard-release-original","1333","464457","0.0-23.0-1.124","","606.0150000012363","Stim/Stim-GB/II_M.PNG","66","","","2","exp","400","1","1","IC","b","true"
"fixation-image-keyboard-release-original","1334","466933","0.0-23.0-1.125","","471.4499999972759","Stim/Stim-BG/II_M.PNG","66","","","2","exp","700","1","1","IC","b","true"
"fixation-image-keyboard-release-original","1335","469410","0.0-23.0-1.126","","472.2750000001397","Stim/Stim-BG/IN_M.PNG","66","","","1","exp","700","1","1","IC","b","true"
"fixation-image-keyboard-release-original","1336","471936","0.0-23.0-1.127","","523.8900000003632","Stim/Stim-GB/MM_I.PNG","86","","","2","exp","100","2","0","IC","v","true"
"fixation-image-keyboard-release-original","1337","474359","0.0-23.0-1.128","","417.45000000088476","Stim/Stim-GB/MM_M.PNG","66","","","2","exp","700","2","1","C","b","true"
"fixation-image-keyboard-release-original","1338","476774","0.0-23.0-1.129","","412.79500000021653","Stim/Stim-GB/II_M.PNG","66","","","2","exp","100","1","1","IC","b","true"
"fixation-image-keyboard-release-original","1339","479108","0.0-23.0-1.130","","330.3249999989639","Stim/Stim-GB/II_I.PNG","86","","","2","exp","700","1","0","C","v","true"
"fixation-image-keyboard-release-original","1340","481521","0.0-23.0-1.131","","409.3749999993015","Stim/Stim-BG/II_M.PNG","66","","","2","exp","400","1","1","IC","b","true"
"fixation-image-keyboard-release-original","1341","484087","0.0-23.0-1.132","","562.7249999997439","Stim/Stim-GB/MM_I.PNG","86","","","2","exp","700","2","0","IC","v","true"
"fixation-image-keyboard-release-original","1342","486462","0.0-23.0-1.133","","370.9999999991851","Stim/Stim-BG/MM_M.PNG","86","","","2","exp","100","2","1","C","b","false"
"fixation-image-keyboard-release-original","1343","488957","0.0-23.0-1.134","","489.45000000094296","Stim/Stim-GB/MM_I.PNG","86","","","2","exp","100","2","0","IC","v","true"
"fixation-image-keyboard-release-original","1344","491527","0.0-23.0-1.135","","567.7150000010151","Stim/Stim-BG/II_I.PNG","86","","","2","exp","100","1","0","C","v","true"
"fixation-image-keyboard-release-original","1345","493861","0.0-23.0-1.136","","331.57500000012806","Stim/Stim-BG/NM_M.PNG","66","","","1","exp","400","2","1","C","b","true"
"fixation-image-keyboard-release-original","1346","496282","0.0-23.0-1.137","","418.5700000016368","Stim/Stim-GB/NI_M.PNG","66","","","1","exp","400","1","1","IC","b","true"
"fixation-image-keyboard-release-original","1347","498683","0.0-23.0-1.138","","396.72500000236323","Stim/Stim-BG/MN_I.PNG","86","","","1","exp","100","2","0","IC","v","true"
"fixation-image-keyboard-release-original","1348","501183","0.0-23.0-1.139","","495.18499999976484","Stim/Stim-GB/NI_M.PNG","66","","","1","exp","700","1","1","IC","b","true"
"fixation-image-keyboard-release-original","1349","503713","0.0-23.0-1.140","","524.9050000020652","Stim/Stim-GB/IN_M.PNG","66","","","1","exp","700","1","1","IC","b","true"
"fixation-image-keyboard-release-original","1350","506235","0.0-23.0-1.141","","518.8500000004424","Stim/Stim-GB/NM_M.PNG","66","","","1","exp","100","2","1","C","b","true"
"fixation-image-keyboard-release-original","1351","508873","0.0-23.0-1.142","","634.7349999996368","Stim/Stim-GB/MN_M.PNG","66","","","1","exp","100","2","1","C","b","true"
"fixation-image-keyboard-release-original","1352","511339","0.0-23.0-1.143","","462.16499999712687","Stim/Stim-GB/MM_M.PNG","66","","","2","exp","100","2","1","C","b","true"
"html-keyboard-response","1353","525732","0.0-23.0-2.143-0.143","","13390.790000001318","Take a break. Feel free to start again by pressing Enter.","13","","","","","","","","","",""
"fixation-image-keyboard-release-original","1574","528340","0.0-23.0-1.144","","455.6350000021048","Stim/Stim-GB/MM_I.PNG","86","","","2","exp","100","2","0","IC","v","true"
"fixation-image-keyboard-release-original","1575","530857","0.0-23.0-1.145","","512.130000002915","Stim/Stim-BG/MM_M.PNG","66","","","2","exp","700","2","1","C","b","true"
"fixation-image-keyboard-release-original","1576","533447","0.0-23.0-1.146","","586.8200000005309","Stim/Stim-GB/MM_I.PNG","86","","","2","exp","400","2","0","IC","v","true"
"fixation-image-keyboard-release-original","1577","536055","0.0-23.0-1.147","","605.3199999986682","Stim/Stim-GB/NI_I.PNG","86","","","1","exp","700","1","0","C","v","true"
"fixation-image-keyboard-release-original","1578","538525","0.0-23.0-1.148","","465.56499999854714","Stim/Stim-BG/NI_M.PNG","86","","","1","exp","100","1","1","IC","b","false"
"fixation-image-keyboard-release-original","1579","541156","0.0-23.0-1.149","","628.6299999991897","Stim/Stim-GB/NM_I.PNG","86","","","1","exp","400","2","0","IC","v","true"
"fixation-image-keyboard-release-original","1580","544138","0.0-23.0-1.150","","978.5450000017881","Stim/Stim-BG/MM_I.PNG","86","","","2","exp","700","2","0","IC","v","true"
"fixation-image-keyboard-release-original","1581","546472","0.0-23.0-1.151","","331.4950000020908","Stim/Stim-GB/II_M.PNG","66","","","2","exp","100","1","1","IC","b","true"
"fixation-image-keyboard-release-original","1582","548969","0.0-23.0-1.152","","493.1700000015553","Stim/Stim-BG/II_M.PNG","66","","","2","exp","700","1","1","IC","b","true"
"fixation-image-keyboard-release-original","1583","551481","0.0-23.0-1.153","","507.3599999996368","Stim/Stim-GB/IN_M.PNG","66","","","1","exp","400","1","1","IC","b","true"
"fixation-image-keyboard-release-original","1584","554006","0.0-23.0-1.154","","523.0400000000373","Stim/Stim-GB/IN_M.PNG","66","","","1","exp","700","1","1","IC","b","true"
"fixation-image-keyboard-release-original","1585","556403","0.0-23.0-1.155","","393.06999999820255","Stim/Stim-GB/MM_I.PNG","86","","","2","exp","700","2","0","IC","v","true"
"fixation-image-keyboard-release-original","1586","558997","0.0-23.0-1.156","","588.4650000006659","Stim/Stim-BG/NM_I.PNG","86","","","1","exp","400","2","0","IC","v","true"
"fixation-image-keyboard-release-original","1587","561340","0.0-23.0-1.157","","340.6749999994645","Stim/Stim-BG/NM_M.PNG","66","","","1","exp","100","2","1","C","b","true"
"fixation-image-keyboard-release-original","1588","563847","0.0-23.0-1.158","","502.6049999977695","Stim/Stim-BG/MN_M.PNG","66","","","1","exp","100","2","1","C","b","true"
"fixation-image-keyboard-release-original","1589","566456","0.0-23.0-1.159","","605.8099999972619","Stim/Stim-BG/II_I.PNG","86","","","2","exp","400","1","0","C","v","true"
"fixation-image-keyboard-release-original","1590","569031","0.0-23.0-1.160","","570.2299999974202","Stim/Stim-BG/II_I.PNG","86","","","2","exp","400","1","0","C","v","true"
"fixation-image-keyboard-release-original","1591","572005","0.0-23.0-1.161","","972.2849999997998","Stim/Stim-BG/II_I.PNG","86","","","2","exp","700","1","0","C","v","true"
"fixation-image-keyboard-release-original","1592","574463","0.0-23.0-1.162","","454.29000000155065","Stim/Stim-GB/MM_M.PNG","66","","","2","exp","700","2","1","C","b","true"
"fixation-image-keyboard-release-original","1593","576867","0.0-23.0-1.163","","400.55000000214204","Stim/Stim-BG/II_I.PNG","86","","","2","exp","700","1","0","C","v","true"
"fixation-image-keyboard-release-original","1594","579318","0.0-23.0-1.164","","448.1949999972712","Stim/Stim-BG/NM_I.PNG","86","","","1","exp","700","2","0","IC","v","true"
"fixation-image-keyboard-release-original","1595","581810","0.0-23.0-1.165","","489.4099999984028","Stim/Stim-GB/MM_M.PNG","66","","","2","exp","700","2","1","C","b","true"
"fixation-image-keyboard-release-original","1596","584213","0.0-23.0-1.166","","397.64000000292435","Stim/Stim-BG/MN_I.PNG","86","","","1","exp","400","2","0","IC","v","true"
"fixation-image-keyboard-release-original","1597","586625","0.0-23.0-1.167","","408.6199999982491","Stim/Stim-BG/NI_I.PNG","86","","","1","exp","100","1","0","C","v","true"
"fixation-image-keyboard-release-original","1598","589045","0.0-23.0-1.168","","415.20500000123866","Stim/Stim-GB/II_I.PNG","86","","","2","exp","700","1","0","C","v","true"
"fixation-image-keyboard-release-original","1599","591982","0.0-23.0-1.169","","934.4899999996414","Stim/Stim-BG/MM_M.PNG","66","","","2","exp","700","2","1","C","b","true"
"fixation-image-keyboard-release-original","1600","594456","0.0-23.0-1.170","","469.99499999941327","Stim/Stim-GB/NM_I.PNG","86","","","1","exp","100","2","0","IC","v","true"
"fixation-image-keyboard-release-original","1601","596900","0.0-23.0-1.171","","440.535000001546","Stim/Stim-GB/II_I.PNG","86","","","2","exp","700","1","0","C","v","true"
"fixation-image-keyboard-release-original","1602","599308","0.0-23.0-1.172","","405.12999999918975","Stim/Stim-GB/II_M.PNG","66","","","2","exp","700","1","1","IC","b","true"
"fixation-image-keyboard-release-original","1603","601797","0.0-23.0-1.173","","486.90500000154134","Stim/Stim-BG/NI_M.PNG","66","","","1","exp","700","1","1","IC","b","true"
"fixation-image-keyboard-release-original","1604","604223","0.0-23.0-1.174","","424.13999999919906","Stim/Stim-BG/NI_M.PNG","66","","","1","exp","700","1","1","IC","b","true"
"fixation-image-keyboard-release-original","1605","606710","0.0-23.0-1.175","","480.7500000024447","Stim/Stim-GB/II_M.PNG","66","","","2","exp","700","1","1","IC","b","true"
"fixation-image-keyboard-release-original","1606","609290","0.0-23.0-1.176","","575.4249999991152","Stim/Stim-BG/MM_I.PNG","86","","","2","exp","400","2","0","IC","v","true"
"fixation-image-keyboard-release-original","1607","611890","0.0-23.0-1.177","","596.8949999987381","Stim/Stim-GB/MN_M.PNG","66","","","1","exp","700","2","1","C","b","true"
"fixation-image-keyboard-release-original","1608","614550","0.0-23.0-1.178","","657.8799999988405","Stim/Stim-BG/IN_M.PNG","66","","","1","exp","100","1","1","IC","b","true"
"fixation-image-keyboard-release-original","1609","617108","0.0-23.0-1.179","","553.3849999993108","Stim/Stim-BG/MM_I.PNG","86","","","2","exp","400","2","0","IC","v","true"
"fixation-image-keyboard-release-original","1610","619563","0.0-23.0-1.180","","452.6999999979744","Stim/Stim-BG/NI_I.PNG","86","","","1","exp","100","1","0","C","v","true"
"fixation-image-keyboard-release-original","1611","622006","0.0-23.0-1.181","","441.12999999918975","Stim/Stim-GB/II_I.PNG","86","","","2","exp","400","1","0","C","v","true"
"fixation-image-keyboard-release-original","1612","624511","0.0-23.0-1.182","","500.95499999949243","Stim/Stim-BG/NM_M.PNG","66","","","1","exp","400","2","1","C","b","true"
"fixation-image-keyboard-release-original","1613","627033","0.0-23.0-1.183","","519.0599999987753","Stim/Stim-BG/IN_M.PNG","66","","","1","exp","700","1","1","IC","b","true"
"fixation-image-keyboard-release-original","1614","629962","0.0-23.0-1.184","","924.4550000003073","Stim/Stim-BG/MM_M.PNG","66","","","2","exp","700","2","1","C","b","true"
"fixation-image-keyboard-release-original","1615","632429","0.0-23.0-1.185","","463.8450000019511","Stim/Stim-GB/IN_M.PNG","66","","","1","exp","100","1","1","IC","b","true"
"fixation-image-keyboard-release-original","1616","634918","0.0-23.0-1.186","","486.3049999985378","Stim/Stim-GB/MN_I.PNG","86","","","1","exp","400","2","0","IC","v","true"
"fixation-image-keyboard-release-original","1617","637359","0.0-23.0-1.187","","436.8350000004284","Stim/Stim-GB/IN_I.PNG","86","","","1","exp","400","1","0","C","v","true"
"fixation-image-keyboard-release-original","1618","640629","0.0-23.0-1.188","","1268.1450000018813","Stim/Stim-BG/NI_I.PNG","86","","","1","exp","400","1","0","C","v","true"
"fixation-image-keyboard-release-original","1619","643076","0.0-23.0-1.189","","443.794999999227","Stim/Stim-GB/MN_I.PNG","86","","","1","exp","700","2","0","IC","v","true"
"fixation-image-keyboard-release-original","1620","645490","0.0-23.0-1.190","","410.2850000017788","Stim/Stim-GB/II_M.PNG","66","","","2","exp","400","1","1","IC","b","true"
"fixation-image-keyboard-release-original","1621","648002","0.0-23.0-1.191","","508.73499999952037","Stim/Stim-GB/MN_M.PNG","66","","","1","exp","400","2","1","C","b","true"
"call-function","1622","649004","0.0-24.0","","","","","","","","","","","","","",""
"survey-html-form","1623","653117","0.0-25.0","","4111.170000000158","","","{""hands2"":""Right""}","","","","","","","","",""
"html-keyboard-response","1624","666484","0.0-26.0","","13366.015000003157","<p><h1>This is the end of the experiment.</h1></p><p>Please <a href='Debrief.pdf' target='_blank'>Click Here</a> (this will open a new window) to read more about the study.</p><p>Press ENTER to end the experiment (you will be sent to Prolific - if something goes wrong, the completion code for this study is: 3F11CBBF).</p>","13","","","","","","","","","",""
"pavlovia","1625","666498","0.0-27.0","","","","","","","","","","","","","",""
