"trial_type","trial_index","time_elapsed","internal_node_id","value","rt","stimulus","key_press","responses","success","hand","test","gap","finger","cue","con","correct_response","correct"
"pavlovia","0","9","0.0-0.0","","","","","","","","","","","","","",""
"call-function","1","10","0.0-1.0","","","","","","","","","","","","","",""
"html-keyboard-response","2","24454","0.0-2.0","","24438.39000002481","<div class = 'my_window'><p><h1>Welcome!</h1><br><p><p>This experiment is adminterested by Carl Michael Galang (McMaster University), Dr. Emiel Cracco (Ghent University), Dr. Marcel Brass (Humboldt University of Berlin), & Dr. Sukhvinder Obhi (McMaster University).</p><p>The purpose of this study is to explore basic perceptual processing mechanisms.</p><p>Information gathered during this study will be written up for publication in an academic journal. While there are no direct benefits to you taking part in this study (other than learning more about the research topic and getting paid on Prolific), the results of this study will provide us with a better understanding of perceptual and sensory processes. To learn about this study, particularly in the terms of any associated risks or harms, how confidentiality and anonymity will be handled, withdrawal procedures, incentives that are promised, how to obtain information about the results, etc., please read the accompanying letter of information - <a href='LOI.pdf' target='_blank'>Click Here</a> (this will open a new window).</p><p>This study should take around 10min to complete.</p><p>If you have questions or need more information about the study itself, please contact me at: galangc@mcmaster.ca. This study has been reviewed by the McMaster University Research Ethics Board and received ethics clearance. If you have concerns or questions about your rights as a participant or about the way the study is conducted, please contact the McMaster Research Ethics Secretariat at ethicsoffice@mcmaster.ca.</p><br><p><h1>CONSENT</h1></p><p>I have read the information presented in the letter of information and I agree to participate in this study.</p><p>By pressing Enter, I consent to the above.<p>","13","","","","","","","","","",""
"survey-html-form","3","55246","0.0-3.0","","30789.59499998018","","","{""1"":""5eccb086d314a0887ac5c3b5""}","","","","","","","","",""
"fullscreen","4","63293","0.0-4.0","","","","","","true","","","","","","","",""
"call-function","5","63295","0.0-5.0","","","","","","","","","","","","","",""
"html-keyboard-response","6","165560","0.0-6.0","","102263.030000031","<div class = 'my_window'><h1>Instructions</h1><p>Your task in this experiment is to respond to the letters I or M as they appear on the screen. Unlike most experiments, your task will be to <strong><u>release</u></strong> keys (not push).</p><p>Before each trial starts, please ensure that you keep the <strong><u>V key</u></strong> and <strong><u>B key</u></strong> depressed with your <strong><u>right index finger</u></strong> on the <strong><u>V key</u></strong> and your <strong><u>right middle finger</u></strong> on the <strong><u>B key</u></strong> (see image below). Responses on this experiment will consist of lifting your <strong><u>right index finger</u></strong> to release the <strong><u>V key</u></strong> if you see the letter <strong><u>I</u></strong> or lifting your <strong><u>right middle finger</u></strong> to release the <strong><u>B key</u></strong> if you see the letter <strong><u>M</u></strong> as fast as you can. It is important that you <strong><u>only use your right hand</u></strong> to do the task.</p><p><img src='keyboard_img.png'></p><p>While you complete this task, there will be a couple of hands moving in the background. Ignore them and focus on the task.</p><p>Press ENTER to continue.</p></div>","13","","","","","","","","","",""
"html-keyboard-response","7","202620","0.0-7.0","","37057.449999963865","<div class = 'my_window'><h1>Practice</h1><p>You will first do a practice phase. In the practice phase, you will get feedback on your performance. The practice phase contains 10 trials, but will add an extra trial every time you respond incorrectly.</p><p><p>Before each trial starts, please ensure that you keep the <strong><u>V key</u></strong> and <strong><u>B key</u></strong> depressed with your <strong><u>right index finger</u></strong> on the <strong><u>V key</u></strong> and your <strong><u>right middle finger</u></strong> on the <strong><u>B key</u></strong> (see image below). Responses on this experiment will consist of lifting your <strong><u>right index finger</u></strong> to release the <strong><u>V key</u></strong> if you see the letter <strong><u>I</u></strong> or lifting your <strong><u>right middle finger</u></strong> to release the <strong><u>B key</u></strong> if you see the letter <strong><u>M</u></strong> as fast as you can. It is important that you <strong><u>only use your right hand</u></strong> to do the task.</p><p><img src='keyboard_img.png'></p><p>While you complete this task, there will be a couple of hands moving in the background. Ignore them and focus on the task.</p><p>This is a reaction time experiment, so please try to respond as fast as possible while at the same time minimizing mistakes.</p><p>Press ENTER to begin.</p></div>","13","","","","","","","","","",""
"fixation-image-keyboard-release-original","321","208279","0.0-8.0-1.0","","2149.2449999786913","Stim/Stim-BG/II_I.PNG","86","","","2","exp","700","1","0","C","v","true"
"html-keyboard-response","322","209402","0.0-8.0-2.0","","null","<p> CORRECT </p>","null","","","","","","","","","",""
"fixation-image-keyboard-release-original","443","212310","0.0-9.0-1.0","","951.2550000217743","Stim/Stim-GB/MN_I.PNG","66","","","1","exp","400","2","0","IC","v","false"
"html-keyboard-response","444","213438","0.0-9.0-2.0","","null","<p> INCORRECT </p>","null","","","","","","","","","",""
"fixation-image-keyboard-release-original","770","218213","0.0-9.1-1.1","","1179.009999963455","Stim/Stim-BG/NM_I.PNG","66","","","1","exp","100","2","0","IC","v","false"
"html-keyboard-response","771","219334","0.0-9.1-2.1","","null","<p> INCORRECT </p>","null","","","","","","","","","",""
"fixation-image-keyboard-release-original","788","222047","0.0-9.2-1.2","","1597.6249999948777","Stim/Stim-BG/II_M.PNG","66","","","2","exp","100","1","1","IC","b","true"
"html-keyboard-response","789","223155","0.0-9.2-2.2","","null","<p> CORRECT </p>","null","","","","","","","","","",""
"fixation-image-keyboard-release-original","1096","227272","0.0-10.0-1.0","","681.7450000089593","Stim/Stim-GB/MM_M.PNG","66","","","2","exp","100","2","1","C","b","true"
"html-keyboard-response","1097","228404","0.0-10.0-2.0","","null","<p> CORRECT </p>","null","","","","","","","","","",""
"fixation-image-keyboard-release-original","1437","233742","0.0-11.0-1.0","","1626.1149999918416","Stim/Stim-GB/NM_M.PNG","66","","","1","exp","400","2","1","C","b","true"
"html-keyboard-response","1438","234871","0.0-11.0-2.0","","null","<p> CORRECT </p>","null","","","","","","","","","",""
"fixation-image-keyboard-release-original","1873","240269","0.0-12.0-1.0","","946.680000051856","Stim/Stim-BG/MM_I.PNG","86","","","2","exp","700","2","0","IC","v","true"
"html-keyboard-response","1874","241385","0.0-12.0-2.0","","null","<p> CORRECT </p>","null","","","","","","","","","",""
"fixation-image-keyboard-release-original","2057","244454","0.0-13.0-1.0","","636.9049999630079","Stim/Stim-BG/MM_I.PNG","86","","","2","exp","400","2","0","IC","v","true"
"html-keyboard-response","2058","245568","0.0-13.0-2.0","","null","<p> CORRECT </p>","null","","","","","","","","","",""
"fixation-image-keyboard-release-original","2190","248167","0.0-14.0-1.0","","547.3200000124052","Stim/Stim-GB/MM_I.PNG","86","","","2","exp","700","2","0","IC","v","true"
"html-keyboard-response","2191","249269","0.0-14.0-2.0","","null","<p> CORRECT </p>","null","","","","","","","","","",""
"fixation-image-keyboard-release-original","2248","251258","0.0-15.0-1.0","","546.0549999843352","Stim/Stim-BG/II_M.PNG","66","","","2","exp","400","1","1","IC","b","true"
"html-keyboard-response","2249","252373","0.0-15.0-2.0","","null","<p> CORRECT </p>","null","","","","","","","","","",""
"fixation-image-keyboard-release-original","2322","254390","0.0-16.0-1.0","","438.1899999571033","Stim/Stim-GB/IN_I.PNG","86","","","1","exp","400","1","0","C","v","true"
"html-keyboard-response","2323","255506","0.0-16.0-2.0","","null","<p> CORRECT </p>","null","","","","","","","","","",""
"fixation-image-keyboard-release-original","2399","257619","0.0-17.0-1.0","","516.4349999977276","Stim/Stim-BG/II_I.PNG","86","","","2","exp","400","1","0","C","v","true"
"html-keyboard-response","2400","258738","0.0-17.0-2.0","","null","<p> CORRECT </p>","null","","","","","","","","","",""
"call-function","2401","258739","0.0-18.0","","","","","","","","","","","","","",""
"survey-html-form","2402","268535","0.0-19.0","","9794.370000017807","","","{""hands"":""Right""}","","","","","","","","",""
"html-keyboard-response","2403","278760","0.0-20.0","","10223.860000027344","If you are using <strong><u>just</u></strong> your <strong></u>right hand</u></strong>, then good job! If not, please do so in the main part of the experiment.<br><br>Press Enter to continue","13","","","","","","","","","",""
"html-keyboard-response","2404","317739","0.0-21.0","","38985.029999981634","<div class = 'my_window'><h1>Main Trials</h1><p>Good Job! We will now begin the main trials. In the main trials, you will <strong>not</strong> get feedback. There are 192 trials overall. You will get a self-paced break every 48 trials.</p><p>Instructions Reminder: <p>Before each trial starts, please ensure that you keep the <strong><u>V key</u></strong> and <strong><u>B key</u></strong> depressed with your <strong><u>right index finger</u></strong> on the <strong><u>V key</u></strong> and your <strong><u>right middle finger</u></strong> on the <strong><u>B key</u></strong> (see image below). Responses on this experiment will consist of lifting your <strong><u>right index finger</u></strong> to release the <strong><u>V key</u></strong> if you see the letter <strong><u>I</u></strong> or lifting your <strong><u>right middle finger</u></strong> to release the <strong><u>B key</u></strong> if you see the letter <strong><u>M</u></strong> as fast as you can. It is important that you <strong><u>only use your right hand</u></strong> to do the task.</p><p><img src='keyboard_img.png'></p><p>While you complete this task, there will be a couple of hands moving in the background. Ignore them and focus on the task.</p><p>Remember: this is a reaction time experiment, so please try to respond as fast as possible while at the same time minimizing mistakes.</p><p>Press ENTER to begin.</p></div>","13","","","","","","","","","",""
"call-function","2405","317740","0.0-22.0","","","","","","","","","","","","","",""
"fixation-image-keyboard-release-original","2569","320573","0.0-23.0-1.0","","532.6700000441633","Stim/Stim-BG/IN_M.PNG","66","","","1","exp","700","1","1","IC","b","true"
"fixation-image-keyboard-release-original","2677","323812","0.0-23.0-1.1","","387.3499999754131","Stim/Stim-BG/MM_M.PNG","66","","","2","exp","400","2","1","C","b","true"
"fixation-image-keyboard-release-original","2752","326858","0.0-23.0-1.2","","431.7049999954179","Stim/Stim-GB/II_I.PNG","86","","","2","exp","100","1","0","C","v","true"
"fixation-image-keyboard-release-original","2911","330412","0.0-23.0-1.3","","281.6350000211969","Stim/Stim-GB/MM_M.PNG","66","","","2","exp","100","2","1","C","b","true"
"fixation-image-keyboard-release-original","3032","333762","0.0-23.0-1.4","","375.45499997213483","Stim/Stim-GB/MM_M.PNG","66","","","2","exp","700","2","1","C","b","true"
"fixation-image-keyboard-release-original","3211","337436","0.0-23.0-1.5","","245.02500001108274","Stim/Stim-BG/MM_I.PNG","86","","","2","exp","400","2","0","IC","v","true"
"fixation-image-keyboard-release-original","3239","339954","0.0-23.0-1.6","","298.6199999577366","Stim/Stim-GB/II_I.PNG","66","","","2","exp","700","1","0","C","v","false"
"fixation-image-keyboard-release-original","3365","343527","0.0-23.0-1.7","","560.5450000148267","Stim/Stim-GB/MN_M.PNG","66","","","1","exp","100","2","1","C","b","true"
"fixation-image-keyboard-release-original","3411","346401","0.0-23.0-1.8","","522.7700000395998","Stim/Stim-BG/MN_M.PNG","66","","","1","exp","400","2","1","C","b","true"
"fixation-image-keyboard-release-original","3519","349639","0.0-23.0-1.9","","378.8899999926798","Stim/Stim-GB/MM_M.PNG","66","","","2","exp","100","2","1","C","b","true"
"fixation-image-keyboard-release-original","3575","352404","0.0-23.0-1.10","","324.02499997988343","Stim/Stim-BG/II_I.PNG","86","","","2","exp","400","1","0","C","v","true"
"fixation-image-keyboard-release-original","3632","355484","0.0-23.0-1.11","","641.959999979008","Stim/Stim-BG/II_M.PNG","86","","","2","exp","400","1","1","IC","b","false"
"fixation-image-keyboard-release-original","3797","359286","0.0-23.0-1.12","","487.0149999624118","Stim/Stim-GB/NM_M.PNG","66","","","1","exp","100","2","1","C","b","true"
"fixation-image-keyboard-release-original","3883","362522","0.0-23.0-1.13","","533.8200000114739","Stim/Stim-BG/MM_I.PNG","86","","","2","exp","700","2","0","IC","v","true"
"fixation-image-keyboard-release-original","3968","365712","0.0-23.0-1.14","","493.6450000386685","Stim/Stim-GB/II_I.PNG","86","","","2","exp","700","1","0","C","v","true"
"fixation-image-keyboard-release-original","4027","368585","0.0-23.0-1.15","","421.7349999817088","Stim/Stim-GB/IN_I.PNG","86","","","1","exp","400","1","0","C","v","true"
"fixation-image-keyboard-release-original","4104","371755","0.0-23.0-1.16","","571.3300000061281","Stim/Stim-GB/MM_M.PNG","66","","","2","exp","700","2","1","C","b","true"
"fixation-image-keyboard-release-original","4205","375249","0.0-23.0-1.17","","677.6100000133738","Stim/Stim-GB/MN_M.PNG","66","","","1","exp","700","2","1","C","b","true"
"fixation-image-keyboard-release-original","4265","378273","0.0-23.0-1.18","","511.2099999678321","Stim/Stim-GB/II_I.PNG","86","","","2","exp","400","1","0","C","v","true"
"fixation-image-keyboard-release-original","4291","380955","0.0-23.0-1.19","","486.8750000023283","Stim/Stim-BG/MM_M.PNG","66","","","2","exp","700","2","1","C","b","true"
"fixation-image-keyboard-release-original","4366","384011","0.0-23.0-1.20","","451.65000000270084","Stim/Stim-BG/MN_I.PNG","86","","","1","exp","100","2","0","IC","v","true"
"fixation-image-keyboard-release-original","4367","386555","0.0-23.0-1.21","","526.4200000092387","Stim/Stim-BG/MM_I.PNG","86","","","2","exp","100","2","0","IC","v","true"
"fixation-image-keyboard-release-original","4448","389726","0.0-23.0-1.22","","531.8899999838322","Stim/Stim-GB/II_I.PNG","86","","","2","exp","400","1","0","C","v","true"
"fixation-image-keyboard-release-original","4533","392960","0.0-23.0-1.23","","550.9249999886379","Stim/Stim-BG/NM_I.PNG","86","","","1","exp","100","2","0","IC","v","true"
"fixation-image-keyboard-release-original","4592","395888","0.0-23.0-1.24","","461.9500000262633","Stim/Stim-GB/MM_I.PNG","86","","","2","exp","700","2","0","IC","v","true"
"fixation-image-keyboard-release-original","4633","398664","0.0-23.0-1.25","","455.3600000217557","Stim/Stim-GB/IN_I.PNG","86","","","1","exp","700","1","0","C","v","true"
"fixation-image-keyboard-release-original","4683","401587","0.0-23.0-1.26","","512.6199999940582","Stim/Stim-GB/II_M.PNG","66","","","2","exp","100","1","1","IC","b","true"
"fixation-image-keyboard-release-original","4744","404573","0.0-23.0-1.27","","504.32999996701255","Stim/Stim-BG/MN_I.PNG","86","","","1","exp","100","2","0","IC","v","true"
"fixation-image-keyboard-release-original","4821","407669","0.0-23.0-1.28","","495.4499999876134","Stim/Stim-GB/MM_M.PNG","66","","","2","exp","400","2","1","C","b","true"
"fixation-image-keyboard-release-original","4868","410635","0.0-23.0-1.29","","599.3299999972805","Stim/Stim-GB/II_M.PNG","66","","","2","exp","400","1","1","IC","b","true"
"fixation-image-keyboard-release-original","4930","413771","0.0-23.0-1.30","","652.9499999596737","Stim/Stim-GB/NI_I.PNG","86","","","1","exp","100","1","0","C","v","true"
"fixation-image-keyboard-release-original","4991","416748","0.0-23.0-1.31","","486.78999999538064","Stim/Stim-BG/NI_I.PNG","86","","","1","exp","400","1","0","C","v","true"
"fixation-image-keyboard-release-original","5071","419953","0.0-23.0-1.32","","556.1949999537319","Stim/Stim-GB/MM_I.PNG","86","","","2","exp","100","2","0","IC","v","true"
"fixation-image-keyboard-release-original","5190","423462","0.0-23.0-1.33","","566.4249999681488","Stim/Stim-GB/NI_I.PNG","86","","","1","exp","700","1","0","C","v","true"
"fixation-image-keyboard-release-original","5270","426623","0.0-23.0-1.34","","530.765000032261","Stim/Stim-GB/IN_I.PNG","86","","","1","exp","100","1","0","C","v","true"
"fixation-image-keyboard-release-original","5389","430172","0.0-23.0-1.35","","594.9600000167266","Stim/Stim-BG/II_M.PNG","66","","","2","exp","100","1","1","IC","b","true"
"fixation-image-keyboard-release-original","5471","433915","0.0-23.0-1.36","","1089.2050000256859","Stim/Stim-GB/MN_I.PNG","86","","","1","exp","400","2","0","IC","v","true"
"fixation-image-keyboard-release-original","5550","437279","0.0-23.0-1.37","","710.0399999762885","Stim/Stim-GB/MM_M.PNG","66","","","2","exp","100","2","1","C","b","true"
"fixation-image-keyboard-release-original","5628","440480","0.0-23.0-1.38","","577.2599999909289","Stim/Stim-GB/IN_M.PNG","66","","","1","exp","700","1","1","IC","b","true"
"fixation-image-keyboard-release-original","5686","443431","0.0-23.0-1.39","","487.0200000004843","Stim/Stim-GB/MM_I.PNG","86","","","2","exp","400","2","0","IC","v","true"
"fixation-image-keyboard-release-original","5758","446602","0.0-23.0-1.40","","586.4899999578483","Stim/Stim-BG/MN_I.PNG","86","","","1","exp","700","2","0","IC","v","true"
"fixation-image-keyboard-release-original","5818","449698","0.0-23.0-1.41","","582.2950000292622","Stim/Stim-BG/MM_M.PNG","66","","","2","exp","100","2","1","C","b","true"
"fixation-image-keyboard-release-original","5892","452929","0.0-23.0-1.42","","648.1950000161305","Stim/Stim-BG/IN_M.PNG","66","","","1","exp","400","1","1","IC","b","true"
"fixation-image-keyboard-release-original","5944","455780","0.0-23.0-1.43","","432.2050000191666","Stim/Stim-GB/IN_M.PNG","66","","","1","exp","100","1","1","IC","b","true"
"fixation-image-keyboard-release-original","5999","458776","0.0-23.0-1.44","","562.9699999699369","Stim/Stim-BG/MM_I.PNG","86","","","2","exp","400","2","0","IC","v","true"
"fixation-image-keyboard-release-original","6034","461658","0.0-23.0-1.45","","606.900000013411","Stim/Stim-BG/NI_I.PNG","86","","","1","exp","700","1","0","C","v","true"
"fixation-image-keyboard-release-original","6120","464828","0.0-23.0-1.46","","502.12000001920387","Stim/Stim-GB/II_I.PNG","86","","","2","exp","100","1","0","C","v","true"
"fixation-image-keyboard-release-original","6189","467944","0.0-23.0-1.47","","566.6450000135228","Stim/Stim-GB/NI_M.PNG","66","","","1","exp","100","1","1","IC","b","true"
"html-keyboard-response","6190","474062","0.0-23.0-2.47-0.47","","5114.494999987073","Take a break. Feel free to start again by pressing Enter.","13","","","","","","","","","",""
"fixation-image-keyboard-release-original","6948","481577","0.0-23.0-1.48","","443.13999998848885","Stim/Stim-GB/NM_M.PNG","66","","","1","exp","100","2","1","C","b","true"
"fixation-image-keyboard-release-original","7011","484578","0.0-23.0-1.49","","508.7550000171177","Stim/Stim-BG/MM_M.PNG","66","","","2","exp","100","2","1","C","b","true"
"fixation-image-keyboard-release-original","7084","487545","0.0-23.0-1.50","","384.2799999983981","Stim/Stim-GB/MM_M.PNG","66","","","2","exp","700","2","1","C","b","true"
"fixation-image-keyboard-release-original","7138","490481","0.0-23.0-1.51","","536.919999984093","Stim/Stim-BG/II_I.PNG","86","","","2","exp","100","1","0","C","v","true"
"fixation-image-keyboard-release-original","7204","493493","0.0-23.0-1.52","","485.8949999907054","Stim/Stim-GB/NM_I.PNG","86","","","1","exp","400","2","0","IC","v","true"
"fixation-image-keyboard-release-original","7286","496672","0.0-23.0-1.53","","536.5050000254996","Stim/Stim-GB/NM_I.PNG","86","","","1","exp","400","2","0","IC","v","true"
"fixation-image-keyboard-release-original","7358","499750","0.0-23.0-1.54","","484.00500003481284","Stim/Stim-BG/II_I.PNG","86","","","2","exp","400","1","0","C","v","true"
"fixation-image-keyboard-release-original","7419","502721","0.0-23.0-1.55","","488.8749999809079","Stim/Stim-GB/II_M.PNG","66","","","2","exp","400","1","1","IC","b","true"
"fixation-image-keyboard-release-original","7466","505637","0.0-23.0-1.56","","531.9199999794364","Stim/Stim-GB/II_M.PNG","66","","","2","exp","100","1","1","IC","b","true"
"fixation-image-keyboard-release-original","7511","508405","0.0-23.0-1.57","","407.02499996405095","Stim/Stim-BG/IN_I.PNG","86","","","1","exp","400","1","0","C","v","true"
"fixation-image-keyboard-release-original","7593","511531","0.0-23.0-1.58","","477.3350000032224","Stim/Stim-GB/MN_I.PNG","86","","","1","exp","400","2","0","IC","v","true"
"fixation-image-keyboard-release-original","7663","514697","0.0-23.0-1.59","","613.5800000047311","Stim/Stim-GB/IN_M.PNG","66","","","1","exp","100","1","1","IC","b","true"
"fixation-image-keyboard-release-original","7738","517752","0.0-23.0-1.60","","472.3299999604933","Stim/Stim-GB/II_M.PNG","66","","","2","exp","100","1","1","IC","b","true"
"fixation-image-keyboard-release-original","7801","520802","0.0-23.0-1.61","","530.9399999678135","Stim/Stim-GB/NM_I.PNG","86","","","1","exp","100","2","0","IC","v","true"
"fixation-image-keyboard-release-original","7887","524028","0.0-23.0-1.62","","547.3650000058115","Stim/Stim-GB/NM_I.PNG","86","","","1","exp","700","2","0","IC","v","true"
"fixation-image-keyboard-release-original","8006","527452","0.0-23.0-1.63","","486.99000000488013","Stim/Stim-BG/NM_M.PNG","66","","","1","exp","700","2","1","C","b","true"
"fixation-image-keyboard-release-original","8102","530678","0.0-23.0-1.64","","438.00500000361353","Stim/Stim-GB/NI_I.PNG","86","","","1","exp","400","1","0","C","v","true"
"fixation-image-keyboard-release-original","8150","533560","0.0-23.0-1.65","","494.9650000198744","Stim/Stim-BG/MM_I.PNG","86","","","2","exp","700","2","0","IC","v","true"
"fixation-image-keyboard-release-original","8214","536630","0.0-23.0-1.66","","548.8599999807775","Stim/Stim-BG/NI_I.PNG","86","","","1","exp","100","1","0","C","v","true"
"fixation-image-keyboard-release-original","8254","539417","0.0-23.0-1.67","","462.7650000038557","Stim/Stim-BG/MM_I.PNG","86","","","2","exp","100","2","0","IC","v","true"
"fixation-image-keyboard-release-original","8319","542454","0.0-23.0-1.68","","504.4849999831058","Stim/Stim-BG/II_I.PNG","86","","","2","exp","700","1","0","C","v","true"
"fixation-image-keyboard-release-original","8355","545241","0.0-23.0-1.69","","490.63500005286187","Stim/Stim-GB/NI_M.PNG","66","","","1","exp","100","1","1","IC","b","true"
"fixation-image-keyboard-release-original","8420","548201","0.0-23.0-1.70","","446.75500004086643","Stim/Stim-GB/II_I.PNG","86","","","2","exp","100","1","0","C","v","true"
"fixation-image-keyboard-release-original","8492","551706","0.0-23.0-1.71","","934.4700000365265","Stim/Stim-BG/MM_M.PNG","66","","","2","exp","400","2","1","C","b","true"
"fixation-image-keyboard-release-original","8513","554394","0.0-23.0-1.72","","536.5849999943748","Stim/Stim-BG/IN_M.PNG","66","","","1","exp","100","1","1","IC","b","true"
"fixation-image-keyboard-release-original","8580","557490","0.0-23.0-1.73","","556.7600000067614","Stim/Stim-GB/NI_I.PNG","86","","","1","exp","700","1","0","C","v","true"
"fixation-image-keyboard-release-original","8641","560640","0.0-23.0-1.74","","659.540000022389","Stim/Stim-BG/II_M.PNG","66","","","2","exp","700","1","1","IC","b","true"
"fixation-image-keyboard-release-original","8705","563726","0.0-23.0-1.75","","576.4900000067428","Stim/Stim-BG/II_M.PNG","66","","","2","exp","400","1","1","IC","b","true"
"fixation-image-keyboard-release-original","8759","566692","0.0-23.0-1.76","","542.4350000103004","Stim/Stim-GB/MM_I.PNG","86","","","2","exp","100","2","0","IC","v","true"
"fixation-image-keyboard-release-original","8774","569271","0.0-23.0-1.77","","462.0700000086799","Stim/Stim-BG/MM_I.PNG","86","","","2","exp","700","2","0","IC","v","true"
"fixation-image-keyboard-release-original","8826","572237","0.0-23.0-1.78","","549.4499999913387","Stim/Stim-GB/II_I.PNG","86","","","2","exp","700","1","0","C","v","true"
"fixation-image-keyboard-release-original","8921","575537","0.0-23.0-1.79","","551.8150000134483","Stim/Stim-GB/NI_I.PNG","86","","","1","exp","100","1","0","C","v","true"
"fixation-image-keyboard-release-original","9003","578628","0.0-23.0-1.80","","442.3850000021048","Stim/Stim-GB/II_I.PNG","86","","","2","exp","100","1","0","C","v","true"
"fixation-image-keyboard-release-original","9084","581683","0.0-23.0-1.81","","407.1949999779463","Stim/Stim-BG/II_I.PNG","86","","","2","exp","700","1","0","C","v","true"
"fixation-image-keyboard-release-original","9165","584824","0.0-23.0-1.82","","484.42499997327104","Stim/Stim-GB/NI_M.PNG","66","","","1","exp","400","1","1","IC","b","true"
"fixation-image-keyboard-release-original","9241","587974","0.0-23.0-1.83","","539.214999997057","Stim/Stim-BG/MM_I.PNG","86","","","2","exp","700","2","0","IC","v","true"
"fixation-image-keyboard-release-original","9319","591100","0.0-23.0-1.84","","504.9849999486469","Stim/Stim-BG/NI_M.PNG","66","","","1","exp","100","1","1","IC","b","true"
"fixation-image-keyboard-release-original","9386","594267","0.0-23.0-1.85","","595.6800000276417","Stim/Stim-BG/II_M.PNG","66","","","2","exp","700","1","1","IC","b","true"
"fixation-image-keyboard-release-original","9452","597303","0.0-23.0-1.86","","529.4350000331178","Stim/Stim-BG/MN_M.PNG","66","","","1","exp","700","2","1","C","b","true"
"fixation-image-keyboard-release-original","9515","600597","0.0-23.0-1.87","","806.1549999983981","Stim/Stim-GB/IN_M.PNG","66","","","1","exp","400","1","1","IC","b","true"
"fixation-image-keyboard-release-original","9600","603712","0.0-23.0-1.88","","455.83500002976507","Stim/Stim-GB/NM_I.PNG","86","","","1","exp","100","2","0","IC","v","true"
"fixation-image-keyboard-release-original","9666","606554","0.0-23.0-1.89","","327.31999998213723","Stim/Stim-BG/NI_M.PNG","66","","","1","exp","400","1","1","IC","b","true"
"fixation-image-keyboard-release-original","9741","609535","0.0-23.0-1.90","","362.91999998502433","Stim/Stim-GB/IN_I.PNG","86","","","1","exp","100","1","0","C","v","true"
"fixation-image-keyboard-release-original","9810","612411","0.0-23.0-1.91","","305.2599999937229","Stim/Stim-BG/IN_M.PNG","66","","","1","exp","700","1","1","IC","b","true"
"fixation-image-keyboard-release-original","10229","618330","0.0-23.0-1.92","","526.6849999898113","Stim/Stim-BG/MM_I.PNG","86","","","2","exp","100","2","0","IC","v","true"
"fixation-image-keyboard-release-original","10298","621406","0.0-23.0-1.93","","512.4350000405684","Stim/Stim-GB/MM_I.PNG","86","","","2","exp","700","2","0","IC","v","true"
"fixation-image-keyboard-release-original","10365","624377","0.0-23.0-1.94","","436.2250000122003","Stim/Stim-BG/MN_I.PNG","86","","","1","exp","700","2","0","IC","v","true"
"fixation-image-keyboard-release-original","10440","627453","0.0-23.0-1.95","","480.44499999377877","Stim/Stim-BG/MM_I.PNG","86","","","2","exp","400","2","0","IC","v","true"
"html-keyboard-response","10441","651528","0.0-23.0-2.95-0.95","","23073.105000017677","Take a break. Feel free to start again by pressing Enter.","13","","","","","","","","","",""
"fixation-image-keyboard-release-original","10630","654614","0.0-23.0-1.96","","572.4349999800324","Stim/Stim-BG/II_M.PNG","66","","","2","exp","100","1","1","IC","b","true"
"fixation-image-keyboard-release-original","10714","657744","0.0-23.0-1.97","","467.1249999664724","Stim/Stim-BG/NI_I.PNG","86","","","1","exp","700","1","0","C","v","true"
"fixation-image-keyboard-release-original","10822","661010","0.0-23.0-1.98","","366.98500002967194","Stim/Stim-BG/NI_M.PNG","66","","","1","exp","100","1","1","IC","b","true"
"fixation-image-keyboard-release-original","10923","664358","0.0-23.0-1.99","","546.7400000197813","Stim/Stim-GB/NI_M.PNG","66","","","1","exp","700","1","1","IC","b","true"
"fixation-image-keyboard-release-original","10978","667295","0.0-23.0-1.100","","501.9099999917671","Stim/Stim-BG/MM_I.PNG","86","","","2","exp","400","2","0","IC","v","true"
"fixation-image-keyboard-release-original","11028","670062","0.0-23.0-1.101","","386.61000004503876","Stim/Stim-BG/NM_I.PNG","66","","","1","exp","400","2","0","IC","v","false"
"fixation-image-keyboard-release-original","11057","672726","0.0-23.0-1.102","","443.27499996870756","Stim/Stim-GB/IN_I.PNG","86","","","1","exp","400","1","0","C","v","true"
"fixation-image-keyboard-release-original","11106","675592","0.0-23.0-1.103","","471.88999998616055","Stim/Stim-GB/MM_M.PNG","66","","","2","exp","400","2","1","C","b","true"
"fixation-image-keyboard-release-original","11120","678225","0.0-23.0-1.104","","516.52499998454","Stim/Stim-BG/II_I.PNG","86","","","2","exp","100","1","0","C","v","true"
"fixation-image-keyboard-release-original","11132","680869","0.0-23.0-1.105","","535.6150000006892","Stim/Stim-GB/MM_I.PNG","86","","","2","exp","700","2","0","IC","v","true"
"fixation-image-keyboard-release-original","11176","683934","0.0-23.0-1.106","","721.480000007432","Stim/Stim-GB/MN_M.PNG","66","","","1","exp","100","2","1","C","b","true"
"fixation-image-keyboard-release-original","11220","686652","0.0-23.0-1.107","","351.75000003073364","Stim/Stim-GB/NM_M.PNG","66","","","1","exp","400","2","1","C","b","true"
"fixation-image-keyboard-release-original","11291","689837","0.0-23.0-1.108","","636.3649999839254","Stim/Stim-BG/NM_I.PNG","86","","","1","exp","400","2","0","IC","v","true"
"fixation-image-keyboard-release-original","11295","692390","0.0-23.0-1.109","","530.5950000183657","Stim/Stim-GB/IN_I.PNG","86","","","1","exp","700","1","0","C","v","true"
"fixation-image-keyboard-release-original","11347","695306","0.0-23.0-1.110","","502.7849999605678","Stim/Stim-GB/MM_M.PNG","66","","","2","exp","700","2","1","C","b","true"
"fixation-image-keyboard-release-original","11401","698332","0.0-23.0-1.111","","587.0400000130758","Stim/Stim-BG/MN_M.PNG","66","","","1","exp","100","2","1","C","b","true"
"fixation-image-keyboard-release-original","11430","700985","0.0-23.0-1.112","","427.2249999921769","Stim/Stim-BG/MM_M.PNG","66","","","2","exp","100","2","1","C","b","true"
"fixation-image-keyboard-release-original","11453","703803","0.0-23.0-1.113","","619.6500000078231","Stim/Stim-BG/MM_I.PNG","86","","","2","exp","100","2","0","IC","v","true"
"fixation-image-keyboard-release-original","11512","706912","0.0-23.0-1.114","","646.1800000397488","Stim/Stim-GB/MM_M.PNG","66","","","2","exp","400","2","1","C","b","true"
"fixation-image-keyboard-release-original","11570","709923","0.0-23.0-1.115","","551.6199999838136","Stim/Stim-BG/II_I.PNG","86","","","2","exp","100","1","0","C","v","true"
"fixation-image-keyboard-release-original","11669","713476","0.0-23.0-1.116","","751.2550000101328","Stim/Stim-BG/IN_I.PNG","86","","","1","exp","400","1","0","C","v","true"
"fixation-image-keyboard-release-original","11736","716309","0.0-23.0-1.117","","314.4750000210479","Stim/Stim-BG/NM_M.PNG","66","","","1","exp","100","2","1","C","b","true"
"fixation-image-keyboard-release-original","11784","719071","0.0-23.0-1.118","","386.4150000154041","Stim/Stim-BG/II_M.PNG","66","","","2","exp","400","1","1","IC","b","true"
"fixation-image-keyboard-release-original","11850","721987","0.0-23.0-1.119","","395.9599999943748","Stim/Stim-BG/MM_M.PNG","66","","","2","exp","400","2","1","C","b","true"
"fixation-image-keyboard-release-original","11909","725048","0.0-23.0-1.120","","596.1200000019744","Stim/Stim-BG/IN_M.PNG","66","","","1","exp","100","1","1","IC","b","true"
"fixation-image-keyboard-release-original","11959","727880","0.0-23.0-1.121","","427.460000035353","Stim/Stim-BG/II_M.PNG","66","","","2","exp","100","1","1","IC","b","true"
"fixation-image-keyboard-release-original","12053","730951","0.0-23.0-1.122","","325.7599999778904","Stim/Stim-BG/MM_M.PNG","66","","","2","exp","400","2","1","C","b","true"
"fixation-image-keyboard-release-original","12140","734056","0.0-23.0-1.123","","397.05000002868474","Stim/Stim-BG/II_I.PNG","86","","","2","exp","400","1","0","C","v","true"
"fixation-image-keyboard-release-original","12185","736918","0.0-23.0-1.124","","501.7200000002049","Stim/Stim-GB/II_M.PNG","66","","","2","exp","700","1","1","IC","b","true"
"fixation-image-keyboard-release-original","12235","739898","0.0-23.0-1.125","","575.7849999936298","Stim/Stim-GB/MM_M.PNG","66","","","2","exp","100","2","1","C","b","true"
"fixation-image-keyboard-release-original","12315","743876","0.0-23.0-1.126","","1326.294999977108","Stim/Stim-BG/NI_I.PNG","86","","","1","exp","400","1","0","C","v","true"
"fixation-image-keyboard-release-original","12397","746837","0.0-23.0-1.127","","292.505000019446","Stim/Stim-BG/MM_M.PNG","66","","","2","exp","700","2","1","C","b","true"
"fixation-image-keyboard-release-original","12431","749596","0.0-23.0-1.128","","490.03499996615574","Stim/Stim-GB/MM_I.PNG","86","","","2","exp","400","2","0","IC","v","true"
"fixation-image-keyboard-release-original","12470","752451","0.0-23.0-1.129","","542.6399999996647","Stim/Stim-BG/NM_I.PNG","86","","","1","exp","100","2","0","IC","v","true"
"fixation-image-keyboard-release-original","12535","755497","0.0-23.0-1.130","","532.4649999965914","Stim/Stim-GB/II_I.PNG","86","","","2","exp","700","1","0","C","v","true"
"fixation-image-keyboard-release-original","12607","758554","0.0-23.0-1.131","","487.77499998686835","Stim/Stim-BG/MN_M.PNG","66","","","1","exp","100","2","1","C","b","true"
"fixation-image-keyboard-release-original","12653","761520","0.0-23.0-1.132","","607.0850000251085","Stim/Stim-BG/NI_M.PNG","66","","","1","exp","400","1","1","IC","b","true"
"fixation-image-keyboard-release-original","12719","764868","0.0-23.0-1.133","","827.9249999905005","Stim/Stim-GB/MM_I.PNG","86","","","2","exp","400","2","0","IC","v","true"
"fixation-image-keyboard-release-original","12775","767720","0.0-23.0-1.134","","392.22500001778826","Stim/Stim-GB/NI_M.PNG","66","","","1","exp","700","1","1","IC","b","true"
"fixation-image-keyboard-release-original","12799","770499","0.0-23.0-1.135","","578.3249999512918","Stim/Stim-BG/MN_M.PNG","66","","","1","exp","700","2","1","C","b","true"
"fixation-image-keyboard-release-original","12859","773509","0.0-23.0-1.136","","537.4399999855086","Stim/Stim-BG/NM_I.PNG","86","","","1","exp","700","2","0","IC","v","true"
"fixation-image-keyboard-release-original","12897","776375","0.0-23.0-1.137","","561.4849999547005","Stim/Stim-GB/II_M.PNG","66","","","2","exp","100","1","1","IC","b","true"
"fixation-image-keyboard-release-original","12948","779472","0.0-23.0-1.138","","676.8000000156462","Stim/Stim-GB/MM_I.PNG","86","","","2","exp","700","2","0","IC","v","true"
"fixation-image-keyboard-release-original","12986","782089","0.0-23.0-1.139","","309.5299999695271","Stim/Stim-GB/IN_M.PNG","66","","","1","exp","700","1","1","IC","b","true"
"fixation-image-keyboard-release-original","13002","784761","0.0-23.0-1.140","","546.6000000014901","Stim/Stim-BG/MM_M.PNG","66","","","2","exp","100","2","1","C","b","true"
"fixation-image-keyboard-release-original","13055","787548","0.0-23.0-1.141","","372.53499997314066","Stim/Stim-GB/MM_M.PNG","66","","","2","exp","400","2","1","C","b","true"
"fixation-image-keyboard-release-original","13067","790186","0.0-23.0-1.142","","537.4450000235811","Stim/Stim-BG/II_M.PNG","66","","","2","exp","400","1","1","IC","b","true"
"fixation-image-keyboard-release-original","13109","792875","0.0-23.0-1.143","","364.03499997686595","Stim/Stim-BG/NI_M.PNG","66","","","1","exp","700","1","1","IC","b","true"
"html-keyboard-response","13110","796184","0.0-23.0-2.143-0.143","","2307.8349999850616","Take a break. Feel free to start again by pressing Enter.","13","","","","","","","","","",""
"fixation-image-keyboard-release-original","13355","799678","0.0-23.0-1.144","","534.4949999707751","Stim/Stim-GB/MN_I.PNG","86","","","1","exp","700","2","0","IC","v","true"
"fixation-image-keyboard-release-original","13430","802764","0.0-23.0-1.145","","488.03499998757616","Stim/Stim-BG/IN_I.PNG","86","","","1","exp","700","1","0","C","v","true"
"fixation-image-keyboard-release-original","13474","805556","0.0-23.0-1.146","","422.69999999552965","Stim/Stim-GB/MM_I.PNG","86","","","2","exp","400","2","0","IC","v","true"
"fixation-image-keyboard-release-original","13517","808373","0.0-23.0-1.147","","456.98499999707565","Stim/Stim-GB/MN_I.PNG","86","","","1","exp","100","2","0","IC","v","true"
"fixation-image-keyboard-release-original","13561","811190","0.0-23.0-1.148","","471.5250000008382","Stim/Stim-BG/NM_I.PNG","86","","","1","exp","700","2","0","IC","v","true"
"fixation-image-keyboard-release-original","13596","813833","0.0-23.0-1.149","","372.9499999899417","Stim/Stim-GB/MM_I.PNG","86","","","2","exp","100","2","0","IC","v","true"
"fixation-image-keyboard-release-original","13640","816704","0.0-23.0-1.150","","526.4500000048429","Stim/Stim-BG/IN_M.PNG","66","","","1","exp","400","1","1","IC","b","true"
"fixation-image-keyboard-release-original","13706","819750","0.0-23.0-1.151","","502.5000000023283","Stim/Stim-GB/MN_I.PNG","86","","","1","exp","700","2","0","IC","v","true"
"fixation-image-keyboard-release-original","13763","822756","0.0-23.0-1.152","","566.3799999747425","Stim/Stim-BG/IN_I.PNG","86","","","1","exp","100","1","0","C","v","true"
"fixation-image-keyboard-release-original","13842","825932","0.0-23.0-1.153","","546.5800000238232","Stim/Stim-GB/NM_I.PNG","86","","","1","exp","700","2","0","IC","v","true"
"fixation-image-keyboard-release-original","13900","828893","0.0-23.0-1.154","","506.7999999737367","Stim/Stim-BG/II_M.PNG","66","","","2","exp","100","1","1","IC","b","true"
"fixation-image-keyboard-release-original","13955","831845","0.0-23.0-1.155","","501.1600000434555","Stim/Stim-BG/II_M.PNG","66","","","2","exp","700","1","1","IC","b","true"
"fixation-image-keyboard-release-original","14000","834612","0.0-23.0-1.156","","401.40999999130145","Stim/Stim-BG/NM_M.PNG","66","","","1","exp","400","2","1","C","b","true"
"fixation-image-keyboard-release-original","14078","837681","0.0-23.0-1.157","","438.5199999669567","Stim/Stim-GB/II_M.PNG","66","","","2","exp","700","1","1","IC","b","true"
"fixation-image-keyboard-release-original","14125","840529","0.0-23.0-1.158","","477.01500001130626","Stim/Stim-BG/MN_I.PNG","86","","","1","exp","400","2","0","IC","v","true"
"fixation-image-keyboard-release-original","14146","843236","0.0-23.0-1.159","","537.0450000045821","Stim/Stim-GB/MN_M.PNG","66","","","1","exp","400","2","1","C","b","true"
"fixation-image-keyboard-release-original","14169","845944","0.0-23.0-1.160","","536.6500000236556","Stim/Stim-GB/II_I.PNG","86","","","2","exp","400","1","0","C","v","true"
"fixation-image-keyboard-release-original","14182","848607","0.0-23.0-1.161","","562.3849999974482","Stim/Stim-BG/II_I.PNG","86","","","2","exp","400","1","0","C","v","true"
"fixation-image-keyboard-release-original","14215","851348","0.0-23.0-1.162","","479.5699999667704","Stim/Stim-GB/II_M.PNG","66","","","2","exp","700","1","1","IC","b","true"
"fixation-image-keyboard-release-original","14252","854122","0.0-23.0-1.163","","488.49000001791865","Stim/Stim-GB/NM_M.PNG","66","","","1","exp","700","2","1","C","b","true"
"fixation-image-keyboard-release-original","14280","856769","0.0-23.0-1.164","","427.11500002769753","Stim/Stim-BG/NI_M.PNG","66","","","1","exp","700","1","1","IC","b","true"
"fixation-image-keyboard-release-original","14338","859720","0.0-23.0-1.165","","490.7649999950081","Stim/Stim-GB/IN_M.PNG","66","","","1","exp","400","1","1","IC","b","true"
"fixation-image-keyboard-release-original","14387","862457","0.0-23.0-1.166","","357.1850000298582","Stim/Stim-GB/II_M.PNG","66","","","2","exp","700","1","1","IC","b","true"
"fixation-image-keyboard-release-original","14412","865298","0.0-23.0-1.167","","634.5999999903142","Stim/Stim-BG/II_I.PNG","86","","","2","exp","100","1","0","C","v","true"
"fixation-image-keyboard-release-original","14461","868926","0.0-23.0-1.168","","1253.9600000018254","Stim/Stim-BG/II_I.PNG","86","","","2","exp","700","1","0","C","v","true"
"fixation-image-keyboard-release-original","14498","871679","0.0-23.0-1.169","","472.33499999856576","Stim/Stim-GB/MN_I.PNG","86","","","1","exp","100","2","0","IC","v","true"
"fixation-image-keyboard-release-original","14613","874669","0.0-23.0-1.170","","83.20500003173947","Stim/Stim-BG/MM_M.PNG","66","","","2","exp","700","2","1","C","b","true"
"fixation-image-keyboard-release-original","14684","877626","0.0-23.0-1.171","","386.5449999575503","Stim/Stim-BG/NM_M.PNG","66","","","1","exp","400","2","1","C","b","true"
"fixation-image-keyboard-release-original","14720","880363","0.0-23.0-1.172","","457.6200000010431","Stim/Stim-BG/MN_I.PNG","86","","","1","exp","400","2","0","IC","v","true"
"fixation-image-keyboard-release-original","14731","882837","0.0-23.0-1.173","","382.8499999945052","Stim/Stim-BG/NM_M.PNG","66","","","1","exp","700","2","1","C","b","true"
"fixation-image-keyboard-release-original","14790","885713","0.0-23.0-1.174","","412.49999997671694","Stim/Stim-GB/II_M.PNG","66","","","2","exp","400","1","1","IC","b","true"
"fixation-image-keyboard-release-original","14839","888470","0.0-23.0-1.175","","373.17999999504536","Stim/Stim-GB/NM_M.PNG","66","","","1","exp","700","2","1","C","b","true"
"fixation-image-keyboard-release-original","14879","891138","0.0-23.0-1.176","","341.7699999990873","Stim/Stim-BG/MM_M.PNG","66","","","2","exp","700","2","1","C","b","true"
"fixation-image-keyboard-release-original","14940","893955","0.0-23.0-1.177","","337.8000000375323","Stim/Stim-GB/II_M.PNG","66","","","2","exp","400","1","1","IC","b","true"
"fixation-image-keyboard-release-original","14989","896687","0.0-23.0-1.178","","339.57499999087304","Stim/Stim-GB/MN_M.PNG","66","","","1","exp","400","2","1","C","b","true"
"fixation-image-keyboard-release-original","15043","899634","0.0-23.0-1.179","","501.929999969434","Stim/Stim-GB/II_I.PNG","86","","","2","exp","400","1","0","C","v","true"
"fixation-image-keyboard-release-original","15108","902546","0.0-23.0-1.180","","382.3299999930896","Stim/Stim-BG/MN_M.PNG","66","","","1","exp","400","2","1","C","b","true"
"fixation-image-keyboard-release-original","15155","905368","0.0-23.0-1.181","","446.8550000456162","Stim/Stim-BG/NM_M.PNG","66","","","1","exp","100","2","1","C","b","true"
"fixation-image-keyboard-release-original","15233","908647","0.0-23.0-1.182","","661.8199999793433","Stim/Stim-BG/NI_I.PNG","86","","","1","exp","100","1","0","C","v","true"
"fixation-image-keyboard-release-original","15315","911869","0.0-23.0-1.183","","556.7649999866262","Stim/Stim-GB/NI_I.PNG","86","","","1","exp","400","1","0","C","v","true"
"fixation-image-keyboard-release-original","15390","915033","0.0-23.0-1.184","","563.1949999951757","Stim/Stim-GB/MM_I.PNG","86","","","2","exp","100","2","0","IC","v","true"
"fixation-image-keyboard-release-original","15452","917954","0.0-23.0-1.185","","423.0249999673106","Stim/Stim-GB/NM_M.PNG","66","","","1","exp","400","2","1","C","b","true"
"fixation-image-keyboard-release-original","15518","920876","0.0-23.0-1.186","","402.98499999335036","Stim/Stim-BG/II_I.PNG","86","","","2","exp","700","1","0","C","v","true"
"fixation-image-keyboard-release-original","15568","923819","0.0-23.0-1.187","","531.2149999663234","Stim/Stim-BG/IN_I.PNG","86","","","1","exp","100","1","0","C","v","true"
"fixation-image-keyboard-release-original","15634","926739","0.0-23.0-1.188","","390.6950000091456","Stim/Stim-GB/NI_M.PNG","66","","","1","exp","400","1","1","IC","b","true"
"fixation-image-keyboard-release-original","15675","929585","0.0-23.0-1.189","","519.960000005085","Stim/Stim-BG/IN_I.PNG","86","","","1","exp","700","1","0","C","v","true"
"fixation-image-keyboard-release-original","15739","932452","0.0-23.0-1.190","","354.4199999887496","Stim/Stim-GB/MN_M.PNG","66","","","1","exp","700","2","1","C","b","true"
"fixation-image-keyboard-release-original","15811","935553","0.0-23.0-1.191","","523.0200000223704","Stim/Stim-BG/II_M.PNG","66","","","2","exp","700","1","1","IC","b","true"
"call-function","15812","936554","0.0-24.0","","","","","","","","","","","","","",""
"survey-html-form","15813","942186","0.0-25.0","","5629.524999996647","","","{""hands2"":""Right""}","","","","","","","","",""
"html-keyboard-response","15814","959516","0.0-26.0","","17328.654999961145","<p><h1>This is the end of the experiment.</h1></p><p>Please <a href='Debrief.pdf' target='_blank'>Click Here</a> (this will open a new window) to read more about the study.</p><p>Press ENTER to end the experiment (you will be sent to Prolific - if something goes wrong, the completion code for this study is: 3F11CBBF).</p>","13","","","","","","","","","",""
"pavlovia","15815","959530","0.0-27.0","","","","","","","","","","","","","",""
