"trial_type","trial_index","time_elapsed","internal_node_id","value","rt","stimulus","key_press","responses","success","hand","test","gap","finger","cue","con","correct_response","correct"
"pavlovia","0","5","0.0-0.0","","","","","","","","","","","","","",""
"call-function","1","7","0.0-1.0","","","","","","","","","","","","","",""
"html-keyboard-response","2","48561","0.0-2.0","","48552.41500004195","<div class = 'my_window'><p><h1>Welcome!</h1><br><p><p>This experiment is adminterested by Carl Michael Galang (McMaster University), Dr. Emiel Cracco (Ghent University), Dr. Marcel Brass (Humboldt University of Berlin), & Dr. Sukhvinder Obhi (McMaster University).</p><p>The purpose of this study is to explore basic perceptual processing mechanisms.</p><p>Information gathered during this study will be written up for publication in an academic journal. While there are no direct benefits to you taking part in this study (other than learning more about the research topic and getting paid on Prolific), the results of this study will provide us with a better understanding of perceptual and sensory processes. To learn about this study, particularly in the terms of any associated risks or harms, how confidentiality and anonymity will be handled, withdrawal procedures, incentives that are promised, how to obtain information about the results, etc., please read the accompanying letter of information - <a href='LOI.pdf' target='_blank'>Click Here</a> (this will open a new window).</p><p>This study should take around 10min to complete.</p><p>If you have questions or need more information about the study itself, please contact me at: galangc@mcmaster.ca. This study has been reviewed by the McMaster University Research Ethics Board and received ethics clearance. If you have concerns or questions about your rights as a participant or about the way the study is conducted, please contact the McMaster Research Ethics Secretariat at ethicsoffice@mcmaster.ca.</p><br><p><h1>CONSENT</h1></p><p>I have read the information presented in the letter of information and I agree to participate in this study.</p><p>By pressing Enter, I consent to the above.<p>","13","","","","","","","","","",""
"survey-html-form","3","58724","0.0-3.0","","10161.455000052229","","","{""1"":""5ab56cdb6db3e700011beb51""}","","","","","","","","",""
"fullscreen","4","64798","0.0-4.0","","","","","","true","","","","","","","",""
"call-function","5","64800","0.0-5.0","","","","","","","","","","","","","",""
"html-keyboard-response","6","135300","0.0-6.0","","70496.02500000037","<div class = 'my_window'><h1>Instructions</h1><p>Your task in this experiment is to respond to the letters I or M as they appear on the screen. Unlike most experiments, your task will be to <strong><u>release</u></strong> keys (not push).</p><p>Before each trial starts, please ensure that you keep the <strong><u>V key</u></strong> and <strong><u>B key</u></strong> depressed with your <strong><u>right index finger</u></strong> on the <strong><u>V key</u></strong> and your <strong><u>right middle finger</u></strong> on the <strong><u>B key</u></strong> (see image below). Responses on this experiment will consist of lifting your <strong><u>right index finger</u></strong> to release the <strong><u>V key</u></strong> if you see the letter <strong><u>I</u></strong> or lifting your <strong><u>right middle finger</u></strong> to release the <strong><u>B key</u></strong> if you see the letter <strong><u>M</u></strong> as fast as you can. It is important that you <strong><u>only use your right hand</u></strong> to do the task.</p><p><img src='keyboard_img.png'></p><p>While you complete this task, there will be a couple of hands moving in the background. Ignore them and focus on the task.</p><p>Press ENTER to continue.</p></div>","13","","","","","","","","","",""
"html-keyboard-response","7","152982","0.0-7.0","","17680.425000027753","<div class = 'my_window'><h1>Practice</h1><p>You will first do a practice phase. In the practice phase, you will get feedback on your performance. The practice phase contains 10 trials, but will add an extra trial every time you respond incorrectly.</p><p><p>Before each trial starts, please ensure that you keep the <strong><u>V key</u></strong> and <strong><u>B key</u></strong> depressed with your <strong><u>right index finger</u></strong> on the <strong><u>V key</u></strong> and your <strong><u>right middle finger</u></strong> on the <strong><u>B key</u></strong> (see image below). Responses on this experiment will consist of lifting your <strong><u>right index finger</u></strong> to release the <strong><u>V key</u></strong> if you see the letter <strong><u>I</u></strong> or lifting your <strong><u>right middle finger</u></strong> to release the <strong><u>B key</u></strong> if you see the letter <strong><u>M</u></strong> as fast as you can. It is important that you <strong><u>only use your right hand</u></strong> to do the task.</p><p><img src='keyboard_img.png'></p><p>While you complete this task, there will be a couple of hands moving in the background. Ignore them and focus on the task.</p><p>This is a reaction time experiment, so please try to respond as fast as possible while at the same time minimizing mistakes.</p><p>Press ENTER to begin.</p></div>","13","","","","","","","","","",""
"fixation-image-keyboard-release-original","1197","164050","0.0-8.0-1.0","","3584.045000025071","Stim/Stim-GB/MM_I.PNG","86","","","2","exp","400","2","0","IC","v","true"
"html-keyboard-response","1198","165179","0.0-8.0-2.0","","null","<p> CORRECT </p>","null","","","","","","","","","",""
"fixation-image-keyboard-release-original","2195","176393","0.0-9.0-1.0","","4906.659999978729","Stim/Stim-BG/NI_M.PNG","86","","","1","exp","400","1","1","IC","b","false"
"html-keyboard-response","2196","177519","0.0-9.0-2.0","","null","<p> INCORRECT </p>","null","","","","","","","","","",""
"fixation-image-keyboard-release-original","3401","185829","0.0-9.1-1.1","","892.5150000723079","Stim/Stim-BG/II_M.PNG","86","","","2","exp","700","1","1","IC","b","false"
"html-keyboard-response","3402","186940","0.0-9.1-2.1","","null","<p> INCORRECT </p>","null","","","","","","","","","",""
"fixation-image-keyboard-release-original","4045","192593","0.0-9.2-1.2","","1307.9300000099465","Stim/Stim-BG/MN_I.PNG","66","","","1","exp","700","2","0","IC","v","false"
"html-keyboard-response","4046","193714","0.0-9.2-2.2","","null","<p> INCORRECT </p>","null","","","","","","","","","",""
"fixation-image-keyboard-release-original","4241","196420","0.0-9.3-1.3","","698.2599999755621","Stim/Stim-BG/MN_M.PNG","86","","","1","exp","700","2","1","C","b","false"
"html-keyboard-response","4242","197538","0.0-9.3-2.3","","null","<p> INCORRECT </p>","null","","","","","","","","","",""
"fixation-image-keyboard-release-original","4896","204518","0.0-9.4-1.4","","2569.249999942258","Stim/Stim-BG/IN_M.PNG","66","","","1","exp","700","1","1","IC","b","true"
"html-keyboard-response","4897","205627","0.0-9.4-2.4","","null","<p> CORRECT </p>","null","","","","","","","","","",""
"fixation-image-keyboard-release-original","5621","213195","0.0-10.0-1.0","","2666.28500004299","Stim/Stim-BG/MN_I.PNG","86","","","1","exp","700","2","0","IC","v","true"
"html-keyboard-response","5622","214305","0.0-10.0-2.0","","null","<p> CORRECT </p>","null","","","","","","","","","",""
"fixation-image-keyboard-release-original","6202","219414","0.0-11.0-1.0","","914.0549999428913","Stim/Stim-BG/II_I.PNG","86","","","2","exp","700","1","0","C","v","true"
"html-keyboard-response","6203","220531","0.0-11.0-2.0","","null","<p> CORRECT </p>","null","","","","","","","","","",""
"fixation-image-keyboard-release-original","7247","227833","0.0-12.0-1.0","","737.6599999843165","Stim/Stim-BG/II_I.PNG","86","","","2","exp","100","1","0","C","v","true"
"html-keyboard-response","7248","228937","0.0-12.0-2.0","","null","<p> CORRECT </p>","null","","","","","","","","","",""
"fixation-image-keyboard-release-original","7509","232277","0.0-13.0-1.0","","892.3349999822676","Stim/Stim-GB/II_I.PNG","86","","","2","exp","400","1","0","C","v","true"
"html-keyboard-response","7510","233394","0.0-13.0-2.0","","null","<p> CORRECT </p>","null","","","","","","","","","",""
"fixation-image-keyboard-release-original","7703","236542","0.0-14.0-1.0","","1080.5099999997765","Stim/Stim-GB/II_M.PNG","86","","","2","exp","700","1","1","IC","b","false"
"html-keyboard-response","7704","237645","0.0-14.0-2.0","","null","<p> INCORRECT </p>","null","","","","","","","","","",""
"fixation-image-keyboard-release-original","8210","242382","0.0-14.1-1.1","","966.9299999950454","Stim/Stim-BG/IN_M.PNG","86","","","1","exp","700","1","1","IC","b","false"
"html-keyboard-response","8211","243501","0.0-14.1-2.1","","null","<p> INCORRECT </p>","null","","","","","","","","","",""
"fixation-image-keyboard-release-original","8676","248116","0.0-14.2-1.2","","1091.774999978952","Stim/Stim-GB/MM_I.PNG","66","","","2","exp","700","2","0","IC","v","false"
"html-keyboard-response","8677","249234","0.0-14.2-2.2","","null","<p> INCORRECT </p>","null","","","","","","","","","",""
"fixation-image-keyboard-release-original","8828","251820","0.0-14.3-1.3","","782.6900000218302","Stim/Stim-BG/MM_M.PNG","86","","","2","exp","700","2","1","C","b","false"
"html-keyboard-response","8829","252929","0.0-14.3-2.3","","null","<p> INCORRECT </p>","null","","","","","","","","","",""
"fixation-image-keyboard-release-original","8944","255385","0.0-14.4-1.4","","816.080000018701","Stim/Stim-GB/NM_I.PNG","66","","","1","exp","700","2","0","IC","v","false"
"html-keyboard-response","8945","256491","0.0-14.4-2.4","","null","<p> INCORRECT </p>","null","","","","","","","","","",""
"fixation-image-keyboard-release-original","9123","259416","0.0-14.5-1.5","","955.4199998965487","Stim/Stim-GB/MM_I.PNG","86","","","2","exp","100","2","0","IC","v","true"
"html-keyboard-response","9124","260533","0.0-14.5-2.5","","null","<p> CORRECT </p>","null","","","","","","","","","",""
"fixation-image-keyboard-release-original","9298","263373","0.0-15.0-1.0","","887.65000004787","Stim/Stim-GB/MM_I.PNG","66","","","2","exp","700","2","0","IC","v","false"
"html-keyboard-response","9299","264487","0.0-15.0-2.0","","null","<p> INCORRECT </p>","null","","","","","","","","","",""
"fixation-image-keyboard-release-original","9395","266680","0.0-15.1-1.1","","667.4050000729039","Stim/Stim-BG/IN_I.PNG","86","","","1","exp","100","1","0","C","v","true"
"html-keyboard-response","9396","267793","0.0-15.1-2.1","","null","<p> CORRECT </p>","null","","","","","","","","","",""
"fixation-image-keyboard-release-original","9548","270418","0.0-16.0-1.0","","786.9100000243634","Stim/Stim-BG/II_I.PNG","86","","","2","exp","700","1","0","C","v","true"
"html-keyboard-response","9549","271536","0.0-16.0-2.0","","null","<p> CORRECT </p>","null","","","","","","","","","",""
"fixation-image-keyboard-release-original","9639","273843","0.0-17.0-1.0","","822.5450000027195","Stim/Stim-BG/NI_I.PNG","66","","","1","exp","100","1","0","C","v","false"
"html-keyboard-response","9640","274958","0.0-17.0-2.0","","null","<p> INCORRECT </p>","null","","","","","","","","","",""
"fixation-image-keyboard-release-original","9746","277043","0.0-17.1-1.1","","512.2950000222772","Stim/Stim-BG/MM_M.PNG","86","","","2","exp","700","2","1","C","b","false"
"html-keyboard-response","9747","278152","0.0-17.1-2.1","","null","<p> INCORRECT </p>","null","","","","","","","","","",""
"fixation-image-keyboard-release-original","9748","279860","0.0-17.2-1.2","","689.1599999507889","Stim/Stim-GB/MM_M.PNG","86","","","2","exp","700","2","1","C","b","false"
"html-keyboard-response","9749","280971","0.0-17.2-2.2","","null","<p> INCORRECT </p>","null","","","","","","","","","",""
"fixation-image-keyboard-release-original","9750","282736","0.0-17.3-1.3","","749.8850000556558","Stim/Stim-BG/NM_M.PNG","66","","","1","exp","100","2","1","C","b","true"
"html-keyboard-response","9751","283859","0.0-17.3-2.3","","null","<p> CORRECT </p>","null","","","","","","","","","",""
"call-function","9752","283861","0.0-18.0","","","","","","","","","","","","","",""
"survey-html-form","9753","290460","0.0-19.0","","6596.939999959432","","","{""hands"":""Left""}","","","","","","","","",""
"html-keyboard-response","9754","297403","0.0-20.0","","6941.604999941774","If you are using <strong><u>just</u></strong> your <strong></u>right hand</u></strong>, then good job! If not, please do so in the main part of the experiment.<br><br>Press Enter to continue","13","","","","","","","","","",""
"html-keyboard-response","9755","312789","0.0-21.0","","15384.380000061356","<div class = 'my_window'><h1>Main Trials</h1><p>Good Job! We will now begin the main trials. In the main trials, you will <strong>not</strong> get feedback. There are 192 trials overall. You will get a self-paced break every 48 trials.</p><p>Instructions Reminder: <p>Before each trial starts, please ensure that you keep the <strong><u>V key</u></strong> and <strong><u>B key</u></strong> depressed with your <strong><u>right index finger</u></strong> on the <strong><u>V key</u></strong> and your <strong><u>right middle finger</u></strong> on the <strong><u>B key</u></strong> (see image below). Responses on this experiment will consist of lifting your <strong><u>right index finger</u></strong> to release the <strong><u>V key</u></strong> if you see the letter <strong><u>I</u></strong> or lifting your <strong><u>right middle finger</u></strong> to release the <strong><u>B key</u></strong> if you see the letter <strong><u>M</u></strong> as fast as you can. It is important that you <strong><u>only use your right hand</u></strong> to do the task.</p><p><img src='keyboard_img.png'></p><p>While you complete this task, there will be a couple of hands moving in the background. Ignore them and focus on the task.</p><p>Remember: this is a reaction time experiment, so please try to respond as fast as possible while at the same time minimizing mistakes.</p><p>Press ENTER to begin.</p></div>","13","","","","","","","","","",""
"call-function","9756","312790","0.0-22.0","","","","","","","","","","","","","",""
"fixation-image-keyboard-release-original","12087","327349","0.0-23.0-1.0","","892.0100000686944","Stim/Stim-BG/MM_I.PNG","86","","","2","exp","400","2","0","IC","v","true"
"fixation-image-keyboard-release-original","13053","335306","0.0-23.0-1.1","","630.0849999533966","Stim/Stim-GB/MM_I.PNG","86","","","2","exp","100","2","0","IC","v","true"
"fixation-image-keyboard-release-original","13743","341749","0.0-23.0-1.2","","640.140000032261","Stim/Stim-GB/MM_I.PNG","86","","","2","exp","700","2","0","IC","v","true"
"fixation-image-keyboard-release-original","14041","346371","0.0-23.0-1.3","","961.6300000343472","Stim/Stim-GB/II_I.PNG","66","","","2","exp","700","1","0","C","v","false"
"fixation-image-keyboard-release-original","14645","352338","0.0-23.0-1.4","","627.8999999631196","Stim/Stim-GB/II_M.PNG","66","","","2","exp","100","1","1","IC","b","true"
"fixation-image-keyboard-release-original","14817","356074","0.0-23.0-1.5","","772.3349999869242","Stim/Stim-BG/II_M.PNG","66","","","2","exp","100","1","1","IC","b","true"
"fixation-image-keyboard-release-original","14939","360517","0.0-23.0-1.6","","1766.6949999984354","Stim/Stim-GB/NM_M.PNG","66","","","1","exp","400","2","1","C","b","true"
"fixation-image-keyboard-release-original","15144","364294","0.0-23.0-1.7","","667.7850000560284","Stim/Stim-BG/NI_M.PNG","66","","","1","exp","400","1","1","IC","b","true"
"fixation-image-keyboard-release-original","15253","367437","0.0-23.0-1.8","","524.7550000203773","Stim/Stim-GB/II_M.PNG","66","","","2","exp","400","1","1","IC","b","true"
"fixation-image-keyboard-release-original","15365","370618","0.0-23.0-1.9","","591.0450000083074","Stim/Stim-GB/NM_I.PNG","66","","","1","exp","100","2","0","IC","v","false"
"fixation-image-keyboard-release-original","15478","373911","0.0-23.0-1.10","","666.3100000005215","Stim/Stim-GB/MN_I.PNG","86","","","1","exp","700","2","0","IC","v","true"
"fixation-image-keyboard-release-original","15630","377251","0.0-23.0-1.11","","504.8849999438971","Stim/Stim-GB/MM_I.PNG","66","","","2","exp","400","2","0","IC","v","false"
"fixation-image-keyboard-release-original","15710","380251","0.0-23.0-1.12","","556.3400000100955","Stim/Stim-BG/II_I.PNG","66","","","2","exp","700","1","0","C","v","false"
"fixation-image-keyboard-release-original","15798","383112","0.0-23.0-1.13","","384.19000001158565","Stim/Stim-GB/II_M.PNG","66","","","2","exp","400","1","1","IC","b","true"
"fixation-image-keyboard-release-original","15914","386291","0.0-23.0-1.14","","530.7950000278652","Stim/Stim-BG/II_I.PNG","66","","","2","exp","100","1","0","C","v","false"
"fixation-image-keyboard-release-original","16035","389460","0.0-23.0-1.15","","489.41999999806285","Stim/Stim-BG/II_I.PNG","66","","","2","exp","400","1","0","C","v","false"
"fixation-image-keyboard-release-original","16175","392704","0.0-23.0-1.16","","470.7100000232458","Stim/Stim-BG/MM_I.PNG","66","","","2","exp","700","2","0","IC","v","false"
"fixation-image-keyboard-release-original","16283","395731","0.0-23.0-1.17","","461.6650000680238","Stim/Stim-BG/II_M.PNG","66","","","2","exp","700","1","1","IC","b","true"
"fixation-image-keyboard-release-original","16394","398828","0.0-23.0-1.18","","490.05500006023794","Stim/Stim-BG/MN_I.PNG","86","","","1","exp","100","2","0","IC","v","true"
"fixation-image-keyboard-release-original","16497","401864","0.0-23.0-1.19","","484.7000000299886","Stim/Stim-GB/MM_M.PNG","66","","","2","exp","400","2","1","C","b","true"
"fixation-image-keyboard-release-original","16588","404890","0.0-23.0-1.20","","533.6700000334531","Stim/Stim-BG/II_I.PNG","66","","","2","exp","700","1","0","C","v","false"
"fixation-image-keyboard-release-original","16683","408109","0.0-23.0-1.21","","720.7499999785796","Stim/Stim-BG/NM_M.PNG","66","","","1","exp","100","2","1","C","b","true"
"fixation-image-keyboard-release-original","16787","411415","0.0-23.0-1.22","","738.4450000245124","Stim/Stim-BG/NM_I.PNG","66","","","1","exp","400","2","0","IC","v","false"
"fixation-image-keyboard-release-original","16846","414303","0.0-23.0-1.23","","572.4349999800324","Stim/Stim-BG/II_M.PNG","66","","","2","exp","700","1","1","IC","b","true"
"fixation-image-keyboard-release-original","16939","417306","0.0-23.0-1.24","","491.9799999333918","Stim/Stim-BG/II_I.PNG","66","","","2","exp","400","1","0","C","v","false"
"fixation-image-keyboard-release-original","17024","420370","0.0-23.0-1.25","","609.1000000014901","Stim/Stim-BG/MM_M.PNG","66","","","2","exp","100","2","1","C","b","true"
"fixation-image-keyboard-release-original","17139","423533","0.0-23.0-1.26","","541.3699999917299","Stim/Stim-GB/MN_M.PNG","86","","","1","exp","400","2","1","C","b","false"
"fixation-image-keyboard-release-original","17292","426942","0.0-23.0-1.27","","562.4600000446662","Stim/Stim-GB/NM_I.PNG","66","","","1","exp","700","2","0","IC","v","false"
"fixation-image-keyboard-release-original","17302","429521","0.0-23.0-1.28","","533.6449999595061","Stim/Stim-GB/MM_I.PNG","66","","","2","exp","700","2","0","IC","v","false"
"fixation-image-keyboard-release-original","17366","432430","0.0-23.0-1.29","","565.2649999829009","Stim/Stim-GB/MM_I.PNG","66","","","2","exp","700","2","0","IC","v","false"
"fixation-image-keyboard-release-original","17445","435452","0.0-23.0-1.30","","574.9799999175593","Stim/Stim-GB/MM_I.PNG","66","","","2","exp","100","2","0","IC","v","false"
"fixation-image-keyboard-release-original","17542","438409","0.0-23.0-1.31","","416.12499998882413","Stim/Stim-GB/II_I.PNG","66","","","2","exp","100","1","0","C","v","false"
"fixation-image-keyboard-release-original","17654","441528","0.0-23.0-1.32","","543.5900000156835","Stim/Stim-BG/NI_I.PNG","66","","","1","exp","400","1","0","C","v","false"
"fixation-image-keyboard-release-original","17803","444889","0.0-23.0-1.33","","568.8800000352785","Stim/Stim-GB/MM_I.PNG","66","","","2","exp","100","2","0","IC","v","false"
"fixation-image-keyboard-release-original","17877","447664","0.0-23.0-1.34","","362.84499999601394","Stim/Stim-GB/II_I.PNG","66","","","2","exp","700","1","0","C","v","false"
"fixation-image-keyboard-release-original","17952","450458","0.0-23.0-1.35","","400.1100000459701","Stim/Stim-BG/NI_M.PNG","66","","","1","exp","700","1","1","IC","b","true"
"fixation-image-keyboard-release-original","18063","453549","0.0-23.0-1.36","","499.004999990575","Stim/Stim-BG/II_I.PNG","66","","","2","exp","700","1","0","C","v","false"
"fixation-image-keyboard-release-original","18144","456504","0.0-23.0-1.37","","519.8549999622628","Stim/Stim-GB/IN_I.PNG","86","","","1","exp","700","1","0","C","v","true"
"fixation-image-keyboard-release-original","18277","459801","0.0-23.0-1.38","","574.1050000069663","Stim/Stim-GB/IN_M.PNG","86","","","1","exp","400","1","1","IC","b","false"
"fixation-image-keyboard-release-original","18416","463230","0.0-23.0-1.39","","633.6400000145659","Stim/Stim-GB/II_M.PNG","86","","","2","exp","100","1","1","IC","b","false"
"fixation-image-keyboard-release-original","18498","465936","0.0-23.0-1.40","","262.56500009913","Stim/Stim-GB/MM_M.PNG","66","","","2","exp","100","2","1","C","b","true"
"fixation-image-keyboard-release-original","18586","468525","0.0-23.0-1.41","","106.04999994393438","Stim/Stim-GB/NI_I.PNG","66","","","1","exp","100","1","0","C","v","false"
"fixation-image-keyboard-release-original","18741","471592","0.0-23.0-1.42","","224.0999999921769","Stim/Stim-BG/NM_I.PNG","86","","","1","exp","700","2","0","IC","v","true"
"fixation-image-keyboard-release-original","18813","474436","0.0-23.0-1.43","","464.3200000282377","Stim/Stim-BG/NM_I.PNG","66","","","1","exp","400","2","0","IC","v","false"
"fixation-image-keyboard-release-original","18895","477338","0.0-23.0-1.44","","437.5249999575317","Stim/Stim-BG/II_M.PNG","66","","","2","exp","100","1","1","IC","b","true"
"fixation-image-keyboard-release-original","18961","480104","0.0-23.0-1.45","","406.33499994874","Stim/Stim-GB/MM_I.PNG","66","","","2","exp","700","2","0","IC","v","false"
"fixation-image-keyboard-release-original","19029","482978","0.0-23.0-1.46","","492.99499997869134","Stim/Stim-GB/NM_M.PNG","66","","","1","exp","700","2","1","C","b","true"
"fixation-image-keyboard-release-original","19127","485933","0.0-23.0-1.47","","418.50499995052814","Stim/Stim-GB/MN_I.PNG","66","","","1","exp","400","2","0","IC","v","false"
"html-keyboard-response","19128","490500","0.0-23.0-2.47-0.47","","3559.25000004936","Take a break. Feel free to start again by pressing Enter.","13","","","","","","","","","",""
"fixation-image-keyboard-release-original","19436","493667","0.0-23.0-1.48","","497.21499998122454","Stim/Stim-BG/MM_I.PNG","86","","","2","exp","100","2","0","IC","v","true"
"fixation-image-keyboard-release-original","19527","496656","0.0-23.0-1.49","","510.8849999960512","Stim/Stim-GB/MM_M.PNG","86","","","2","exp","400","2","1","C","b","false"
"fixation-image-keyboard-release-original","19688","500069","0.0-23.0-1.50","","531.1400000937283","Stim/Stim-GB/II_I.PNG","66","","","2","exp","400","1","0","C","v","false"
"fixation-image-keyboard-release-original","19768","503045","0.0-23.0-1.51","","539.0199999092147","Stim/Stim-GB/II_M.PNG","86","","","2","exp","100","1","1","IC","b","false"
"fixation-image-keyboard-release-original","19850","505965","0.0-23.0-1.52","","469.55000003799796","Stim/Stim-GB/MN_I.PNG","86","","","1","exp","100","2","0","IC","v","true"
"fixation-image-keyboard-release-original","20117","510005","0.0-23.0-1.53","","583.4000000031665","Stim/Stim-GB/NI_M.PNG","66","","","1","exp","100","1","1","IC","b","true"
"fixation-image-keyboard-release-original","20155","512796","0.0-23.0-1.54","","584.7349999239668","Stim/Stim-GB/MN_I.PNG","86","","","1","exp","400","2","0","IC","v","true"
"fixation-image-keyboard-release-original","20216","515569","0.0-23.0-1.55","","439.58000000566244","Stim/Stim-BG/IN_M.PNG","86","","","1","exp","100","1","1","IC","b","false"
"fixation-image-keyboard-release-original","20356","518818","0.0-23.0-1.56","","487.4899999704212","Stim/Stim-GB/II_M.PNG","86","","","2","exp","700","1","1","IC","b","false"
"fixation-image-keyboard-release-original","20421","521699","0.0-23.0-1.57","","522.0449999906123","Stim/Stim-GB/MM_M.PNG","86","","","2","exp","100","2","1","C","b","false"
"fixation-image-keyboard-release-original","20849","526659","0.0-23.0-1.58","","584.5350000308827","Stim/Stim-GB/MN_M.PNG","86","","","1","exp","700","2","1","C","b","false"
"fixation-image-keyboard-release-original","21112","530621","0.0-23.0-1.59","","531.224999926053","Stim/Stim-BG/II_M.PNG","86","","","2","exp","100","1","1","IC","b","false"
"fixation-image-keyboard-release-original","21193","533583","0.0-23.0-1.60","","510.3250000393018","Stim/Stim-BG/MM_M.PNG","86","","","2","exp","700","2","1","C","b","false"
"fixation-image-keyboard-release-original","21275","536556","0.0-23.0-1.61","","528.9600000251085","Stim/Stim-GB/MN_M.PNG","86","","","1","exp","100","2","1","C","b","false"
"fixation-image-keyboard-release-original","21400","539780","0.0-23.0-1.62","","525.2349999500439","Stim/Stim-BG/II_M.PNG","86","","","2","exp","700","1","1","IC","b","false"
"fixation-image-keyboard-release-original","21475","542801","0.0-23.0-1.63","","598.0650000274181","Stim/Stim-GB/IN_I.PNG","86","","","1","exp","700","1","0","C","v","true"
"fixation-image-keyboard-release-original","21563","545658","0.0-23.0-1.64","","397.9449999751523","Stim/Stim-GB/MM_I.PNG","86","","","2","exp","100","2","0","IC","v","true"
"fixation-image-keyboard-release-original","21634","548556","0.0-23.0-1.65","","523.0899999151006","Stim/Stim-BG/II_M.PNG","86","","","2","exp","400","1","1","IC","b","false"
"fixation-image-keyboard-release-original","21740","551628","0.0-23.0-1.66","","499.9000000534579","Stim/Stim-BG/NI_M.PNG","66","","","1","exp","100","1","1","IC","b","true"
"fixation-image-keyboard-release-original","21837","554566","0.0-23.0-1.67","","411.1900000134483","Stim/Stim-GB/IN_M.PNG","86","","","1","exp","100","1","1","IC","b","false"
"fixation-image-keyboard-release-original","21959","557730","0.0-23.0-1.68","","493.23999998159707","Stim/Stim-BG/II_M.PNG","66","","","2","exp","700","1","1","IC","b","true"
"fixation-image-keyboard-release-original","22065","560931","0.0-23.0-1.69","","649.2599999764934","Stim/Stim-BG/MM_I.PNG","66","","","2","exp","700","2","0","IC","v","false"
"fixation-image-keyboard-release-original","22159","564030","0.0-23.0-1.70","","573.755000019446","Stim/Stim-BG/IN_M.PNG","86","","","1","exp","700","1","1","IC","b","false"
"fixation-image-keyboard-release-original","22333","567356","0.0-23.0-1.71","","393.404999980703","Stim/Stim-BG/II_I.PNG","86","","","2","exp","100","1","0","C","v","true"
"fixation-image-keyboard-release-original","22417","570375","0.0-23.0-1.72","","564.479999942705","Stim/Stim-GB/MN_I.PNG","66","","","1","exp","100","2","0","IC","v","false"
"fixation-image-keyboard-release-original","22537","573523","0.0-23.0-1.73","","497.9599999496713","Stim/Stim-BG/MM_M.PNG","86","","","2","exp","400","2","1","C","b","false"
"fixation-image-keyboard-release-original","22611","576460","0.0-23.0-1.74","","533.0199999734759","Stim/Stim-BG/MM_I.PNG","66","","","2","exp","700","2","0","IC","v","false"
"fixation-image-keyboard-release-original","22687","579364","0.0-23.0-1.75","","487.10000002756715","Stim/Stim-BG/NM_M.PNG","66","","","1","exp","700","2","1","C","b","true"
"fixation-image-keyboard-release-original","22789","582391","0.0-23.0-1.76","","464.55999999307096","Stim/Stim-BG/MM_M.PNG","86","","","2","exp","700","2","1","C","b","false"
"fixation-image-keyboard-release-original","22868","585339","0.0-23.0-1.77","","538.994999951683","Stim/Stim-GB/NM_I.PNG","66","","","1","exp","700","2","0","IC","v","false"
"fixation-image-keyboard-release-original","22869","587885","0.0-23.0-1.78","","537.6049999613315","Stim/Stim-BG/II_M.PNG","66","","","2","exp","100","1","1","IC","b","true"
"fixation-image-keyboard-release-original","22870","589966","0.0-23.0-1.79","","71.08000002335757","Stim/Stim-GB/II_I.PNG","86","","","2","exp","400","1","0","C","v","true"
"fixation-image-keyboard-release-original","22996","593174","0.0-23.0-1.80","","520.1299999607727","Stim/Stim-GB/MM_M.PNG","66","","","2","exp","700","2","1","C","b","true"
"fixation-image-keyboard-release-original","23123","596512","0.0-23.0-1.81","","658.0049999756739","Stim/Stim-GB/II_M.PNG","86","","","2","exp","400","1","1","IC","b","false"
"fixation-image-keyboard-release-original","23196","599430","0.0-23.0-1.82","","518.7849999638274","Stim/Stim-GB/IN_I.PNG","86","","","1","exp","400","1","0","C","v","true"
"fixation-image-keyboard-release-original","23276","602129","0.0-23.0-1.83","","252.52499990165234","Stim/Stim-BG/II_M.PNG","86","","","2","exp","400","1","1","IC","b","false"
"fixation-image-keyboard-release-original","23354","605020","0.0-23.0-1.84","","474.40499998629093","Stim/Stim-BG/MN_I.PNG","86","","","1","exp","400","2","0","IC","v","true"
"fixation-image-keyboard-release-original","23449","608001","0.0-23.0-1.85","","486.6450000554323","Stim/Stim-GB/MM_I.PNG","86","","","2","exp","400","2","0","IC","v","true"
"fixation-image-keyboard-release-original","23520","610849","0.0-23.0-1.86","","474.1250000661239","Stim/Stim-BG/MN_I.PNG","86","","","1","exp","100","2","0","IC","v","true"
"fixation-image-keyboard-release-original","23576","613720","0.0-23.0-1.87","","568.8200000440702","Stim/Stim-BG/NM_M.PNG","66","","","1","exp","400","2","1","C","b","true"
"fixation-image-keyboard-release-original","23605","616500","0.0-23.0-1.88","","620.7350000040606","Stim/Stim-GB/MM_M.PNG","86","","","2","exp","700","2","1","C","b","false"
"fixation-image-keyboard-release-original","23657","619743","0.0-23.0-1.89","","952.0950000733137","Stim/Stim-BG/MN_M.PNG","86","","","1","exp","100","2","1","C","b","false"
"fixation-image-keyboard-release-original","23772","622927","0.0-23.0-1.90","","564.4199999514967","Stim/Stim-GB/II_M.PNG","86","","","2","exp","400","1","1","IC","b","false"
"fixation-image-keyboard-release-original","23995","628693","0.0-23.0-1.91","","2528.4900000551715","Stim/Stim-BG/NI_M.PNG","86","","","1","exp","400","1","1","IC","b","false"
"fixation-image-keyboard-release-original","24021","631438","0.0-23.0-1.92","","611.2849999917671","Stim/Stim-BG/MN_M.PNG","86","","","1","exp","700","2","1","C","b","false"
"fixation-image-keyboard-release-original","24120","634729","0.0-23.0-1.93","","765.2100000996143","Stim/Stim-BG/IN_M.PNG","86","","","1","exp","400","1","1","IC","b","false"
"fixation-image-keyboard-release-original","24211","640181","0.0-23.0-1.94","","2949.51500010211","Stim/Stim-GB/IN_I.PNG","66","","","1","exp","100","1","0","C","v","false"
"fixation-image-keyboard-release-original","24361","643137","0.0-23.0-1.95","","122.38500011153519","Stim/Stim-BG/MM_I.PNG","86","","","2","exp","400","2","0","IC","v","true"
"html-keyboard-response","24362","646377","0.0-23.0-2.95-0.95","","2235.1550000021234","Take a break. Feel free to start again by pressing Enter.","13","","","","","","","","","",""
"fixation-image-keyboard-release-original","24721","649666","0.0-23.0-1.96","","333.6949999211356","Stim/Stim-BG/MM_I.PNG","86","","","2","exp","100","2","0","IC","v","true"
"fixation-image-keyboard-release-original","24843","652752","0.0-23.0-1.97","","413.59999997075647","Stim/Stim-GB/IN_M.PNG","86","","","1","exp","700","1","1","IC","b","false"
"fixation-image-keyboard-release-original","24919","655687","0.0-23.0-1.98","","536.0499999951571","Stim/Stim-GB/IN_M.PNG","86","","","1","exp","700","1","1","IC","b","false"
"fixation-image-keyboard-release-original","24998","659586","0.0-23.0-1.99","","1469.2049999721348","Stim/Stim-BG/II_I.PNG","66","","","2","exp","100","1","0","C","v","false"
"fixation-image-keyboard-release-original","25106","662783","0.0-23.0-1.100","","600.8699999656528","Stim/Stim-BG/NM_I.PNG","66","","","1","exp","700","2","0","IC","v","false"
"fixation-image-keyboard-release-original","25192","665885","0.0-23.0-1.101","","642.5850000232458","Stim/Stim-BG/NI_I.PNG","66","","","1","exp","100","1","0","C","v","false"
"fixation-image-keyboard-release-original","25281","669018","0.0-23.0-1.102","","645.8250000141561","Stim/Stim-GB/II_M.PNG","66","","","2","exp","100","1","1","IC","b","true"
"fixation-image-keyboard-release-original","25357","672012","0.0-23.0-1.103","","589.244999922812","Stim/Stim-BG/II_I.PNG","66","","","2","exp","100","1","0","C","v","false"
"fixation-image-keyboard-release-original","25444","675004","0.0-23.0-1.104","","495.28000003192574","Stim/Stim-BG/II_I.PNG","66","","","2","exp","400","1","0","C","v","false"
"fixation-image-keyboard-release-original","25576","678437","0.0-23.0-1.105","","719.2150000482798","Stim/Stim-BG/MM_M.PNG","66","","","2","exp","700","2","1","C","b","true"
"fixation-image-keyboard-release-original","25666","681415","0.0-23.0-1.106","","463.4000000078231","Stim/Stim-GB/NI_I.PNG","66","","","1","exp","700","1","0","C","v","false"
"fixation-image-keyboard-release-original","25669","684082","0.0-23.0-1.107","","636.8399999337271","Stim/Stim-BG/MM_M.PNG","66","","","2","exp","400","2","1","C","b","true"
"fixation-image-keyboard-release-original","25768","687278","0.0-23.0-1.108","","654.4899999862537","Stim/Stim-GB/MM_M.PNG","66","","","2","exp","700","2","1","C","b","true"
"fixation-image-keyboard-release-original","25861","690374","0.0-23.0-1.109","","597.0750000560656","Stim/Stim-BG/II_I.PNG","86","","","2","exp","400","1","0","C","v","true"
"fixation-image-keyboard-release-original","26174","694651","0.0-23.0-1.110","","590.3749999124557","Stim/Stim-BG/MM_M.PNG","66","","","2","exp","400","2","1","C","b","true"
"fixation-image-keyboard-release-original","26284","697696","0.0-23.0-1.111","","443.4950000140816","Stim/Stim-GB/NI_I.PNG","66","","","1","exp","400","1","0","C","v","false"
"fixation-image-keyboard-release-original","26444","701182","0.0-23.0-1.112","","616.0849999869242","Stim/Stim-BG/MN_I.PNG","86","","","1","exp","700","2","0","IC","v","true"
"fixation-image-keyboard-release-original","26445","703862","0.0-23.0-1.113","","666.1249999888241","Stim/Stim-BG/MN_M.PNG","86","","","1","exp","100","2","1","C","b","false"
"fixation-image-keyboard-release-original","26487","706692","0.0-23.0-1.114","","580.309999990277","Stim/Stim-BG/NM_M.PNG","66","","","1","exp","700","2","1","C","b","true"
"fixation-image-keyboard-release-original","26488","709251","0.0-23.0-1.115","","545.2800000784919","Stim/Stim-GB/II_I.PNG","66","","","2","exp","100","1","0","C","v","false"
"fixation-image-keyboard-release-original","26489","711875","0.0-23.0-1.116","","596.0399999748915","Stim/Stim-BG/MM_I.PNG","66","","","2","exp","100","2","0","IC","v","false"
"fixation-image-keyboard-release-original","26490","714273","0.0-23.0-1.117","","378.6349999718368","Stim/Stim-GB/NM_M.PNG","66","","","1","exp","100","2","1","C","b","true"
"fixation-image-keyboard-release-original","26491","716731","0.0-23.0-1.118","","441.18999992497265","Stim/Stim-GB/MM_M.PNG","66","","","2","exp","700","2","1","C","b","true"
"fixation-image-keyboard-release-original","26492","719240","0.0-23.0-1.119","","493.3749999618158","Stim/Stim-BG/MM_I.PNG","66","","","2","exp","400","2","0","IC","v","false"
"fixation-image-keyboard-release-original","26493","721700","0.0-23.0-1.120","","450.96000004559755","Stim/Stim-GB/IN_I.PNG","66","","","1","exp","400","1","0","C","v","false"
"fixation-image-keyboard-release-original","26495","724145","0.0-23.0-1.121","","414.9099999340251","Stim/Stim-BG/MM_I.PNG","86","","","2","exp","700","2","0","IC","v","true"
"fixation-image-keyboard-release-original","26496","726556","0.0-23.0-1.122","","403.63499999511987","Stim/Stim-GB/NM_I.PNG","66","","","1","exp","400","2","0","IC","v","false"
"fixation-image-keyboard-release-original","26497","729118","0.0-23.0-1.123","","539.8650000570342","Stim/Stim-GB/II_I.PNG","86","","","2","exp","100","1","0","C","v","true"
"fixation-image-keyboard-release-original","26498","731565","0.0-23.0-1.124","","433.3399999886751","Stim/Stim-BG/NI_I.PNG","66","","","1","exp","700","1","0","C","v","false"
"fixation-image-keyboard-release-original","26530","734405","0.0-23.0-1.125","","649.5650000870228","Stim/Stim-BG/MM_M.PNG","86","","","2","exp","100","2","1","C","b","false"
"fixation-image-keyboard-release-original","26531","737029","0.0-23.0-1.126","","591.75999998115","Stim/Stim-BG/MM_I.PNG","86","","","2","exp","400","2","0","IC","v","true"
"fixation-image-keyboard-release-original","26582","739784","0.0-23.0-1.127","","461.8849999969825","Stim/Stim-GB/NI_I.PNG","66","","","1","exp","400","1","0","C","v","false"
"fixation-image-keyboard-release-original","26649","742664","0.0-23.0-1.128","","513.4900000412017","Stim/Stim-GB/II_M.PNG","66","","","2","exp","700","1","1","IC","b","true"
"fixation-image-keyboard-release-original","26732","745611","0.0-23.0-1.129","","494.1150000086054","Stim/Stim-BG/NI_M.PNG","66","","","1","exp","100","1","1","IC","b","true"
"fixation-image-keyboard-release-original","26837","748797","0.0-23.0-1.130","","618.6349999625236","Stim/Stim-GB/NI_I.PNG","66","","","1","exp","100","1","0","C","v","false"
"fixation-image-keyboard-release-original","26908","752545","0.0-23.0-1.131","","1364.5099999848753","Stim/Stim-BG/NM_I.PNG","66","","","1","exp","100","2","0","IC","v","false"
"fixation-image-keyboard-release-original","26962","755257","0.0-23.0-1.132","","424.4200000539422","Stim/Stim-GB/IN_I.PNG","86","","","1","exp","100","1","0","C","v","true"
"fixation-image-keyboard-release-original","27052","758355","0.0-23.0-1.133","","599.7699999716133","Stim/Stim-BG/IN_I.PNG","86","","","1","exp","700","1","0","C","v","true"
"fixation-image-keyboard-release-original","27115","761285","0.0-23.0-1.134","","577.7450000168756","Stim/Stim-GB/NM_M.PNG","66","","","1","exp","700","2","1","C","b","true"
"fixation-image-keyboard-release-original","27218","764433","0.0-23.0-1.135","","580.599999986589","Stim/Stim-BG/MM_M.PNG","86","","","2","exp","100","2","1","C","b","false"
"fixation-image-keyboard-release-original","27262","767520","0.0-23.0-1.136","","848.0700000654906","Stim/Stim-BG/NI_M.PNG","66","","","1","exp","700","1","1","IC","b","true"
"fixation-image-keyboard-release-original","27350","770520","0.0-23.0-1.137","","532.0649999193847","Stim/Stim-BG/IN_I.PNG","86","","","1","exp","400","1","0","C","v","true"
"fixation-image-keyboard-release-original","27417","773548","0.0-23.0-1.138","","672.1949999919161","Stim/Stim-BG/MN_I.PNG","86","","","1","exp","400","2","0","IC","v","true"
"fixation-image-keyboard-release-original","27481","776690","0.0-23.0-1.139","","807.024999987334","Stim/Stim-GB/II_I.PNG","86","","","2","exp","400","1","0","C","v","true"
"fixation-image-keyboard-release-original","27535","779437","0.0-23.0-1.140","","466.9099999591708","Stim/Stim-BG/MN_M.PNG","86","","","1","exp","400","2","1","C","b","false"
"fixation-image-keyboard-release-original","27599","782256","0.0-23.0-1.141","","488.86500007938594","Stim/Stim-BG/IN_I.PNG","86","","","1","exp","100","1","0","C","v","true"
"fixation-image-keyboard-release-original","27661","785176","0.0-23.0-1.142","","589.0000000363216","Stim/Stim-BG/MM_M.PNG","86","","","2","exp","100","2","1","C","b","false"
"fixation-image-keyboard-release-original","27723","787975","0.0-23.0-1.143","","448.3799999579787","Stim/Stim-GB/IN_M.PNG","86","","","1","exp","100","1","1","IC","b","false"
"html-keyboard-response","27724","791157","0.0-23.0-2.143-0.143","","2176.699999952689","Take a break. Feel free to start again by pressing Enter.","13","","","","","","","","","",""
"fixation-image-keyboard-release-original","28385","796286","0.0-23.0-1.144","","541.5950000751764","Stim/Stim-GB/NM_M.PNG","66","","","1","exp","100","2","1","C","b","true"
"fixation-image-keyboard-release-original","28449","799172","0.0-23.0-1.145","","543.3450000127777","Stim/Stim-GB/MM_M.PNG","66","","","2","exp","100","2","1","C","b","true"
"fixation-image-keyboard-release-original","28534","802069","0.0-23.0-1.146","","442.51000008080155","Stim/Stim-BG/NI_I.PNG","66","","","1","exp","100","1","0","C","v","false"
"fixation-image-keyboard-release-original","28535","804794","0.0-23.0-1.147","","700.2949999878183","Stim/Stim-GB/MM_I.PNG","66","","","2","exp","400","2","0","IC","v","false"
"fixation-image-keyboard-release-original","28536","807346","0.0-23.0-1.148","","536.5649999585003","Stim/Stim-GB/MN_I.PNG","86","","","1","exp","700","2","0","IC","v","true"
"fixation-image-keyboard-release-original","28579","810126","0.0-23.0-1.149","","539.8249999852851","Stim/Stim-BG/MN_M.PNG","86","","","1","exp","400","2","1","C","b","false"
"fixation-image-keyboard-release-original","28657","813072","0.0-23.0-1.150","","515.5800000065938","Stim/Stim-GB/II_I.PNG","86","","","2","exp","100","1","0","C","v","true"
"fixation-image-keyboard-release-original","28733","816240","0.0-23.0-1.151","","744.9400000041351","Stim/Stim-GB/II_I.PNG","66","","","2","exp","400","1","0","C","v","false"
"fixation-image-keyboard-release-original","28818","819306","0.0-23.0-1.152","","610.1599999237806","Stim/Stim-GB/MN_M.PNG","86","","","1","exp","400","2","1","C","b","false"
"fixation-image-keyboard-release-original","28910","822472","0.0-23.0-1.153","","680.7150000240654","Stim/Stim-GB/MM_M.PNG","86","","","2","exp","100","2","1","C","b","false"
"fixation-image-keyboard-release-original","28963","825410","0.0-23.0-1.154","","648.3650000300258","Stim/Stim-GB/II_I.PNG","66","","","2","exp","700","1","0","C","v","false"
"fixation-image-keyboard-release-original","29019","828491","0.0-23.0-1.155","","768.0750000290573","Stim/Stim-BG/NI_I.PNG","66","","","1","exp","400","1","0","C","v","false"
"fixation-image-keyboard-release-original","29130","831613","0.0-23.0-1.156","","494.2899999441579","Stim/Stim-BG/II_M.PNG","86","","","2","exp","400","1","1","IC","b","false"
"fixation-image-keyboard-release-original","29198","834736","0.0-23.0-1.157","","748.035000055097","Stim/Stim-BG/II_I.PNG","66","","","2","exp","700","1","0","C","v","false"
"fixation-image-keyboard-release-original","29301","838210","0.0-23.0-1.158","","894.4599999813363","Stim/Stim-BG/NM_M.PNG","66","","","1","exp","100","2","1","C","b","true"
"fixation-image-keyboard-release-original","29382","841189","0.0-23.0-1.159","","542.1700000297278","Stim/Stim-GB/II_M.PNG","66","","","2","exp","700","1","1","IC","b","true"
"fixation-image-keyboard-release-original","29426","843928","0.0-23.0-1.160","","498.699999996461","Stim/Stim-GB/II_M.PNG","66","","","2","exp","700","1","1","IC","b","true"
"fixation-image-keyboard-release-original","29481","846740","0.0-23.0-1.161","","516.2149999523535","Stim/Stim-GB/IN_M.PNG","86","","","1","exp","400","1","1","IC","b","false"
"fixation-image-keyboard-release-original","29482","849309","0.0-23.0-1.162","","546.1900000227615","Stim/Stim-BG/MN_M.PNG","86","","","1","exp","700","2","1","C","b","false"
"fixation-image-keyboard-release-original","29515","852232","0.0-23.0-1.163","","734.6449999604374","Stim/Stim-BG/IN_M.PNG","86","","","1","exp","100","1","1","IC","b","false"
"fixation-image-keyboard-release-original","29584","855148","0.0-23.0-1.164","","532.7250000555068","Stim/Stim-GB/NI_M.PNG","66","","","1","exp","700","1","1","IC","b","true"
"fixation-image-keyboard-release-original","29585","857633","0.0-23.0-1.165","","466.55000001192093","Stim/Stim-BG/II_M.PNG","86","","","2","exp","400","1","1","IC","b","false"
"fixation-image-keyboard-release-original","29586","860228","0.0-23.0-1.166","","567.3899999819696","Stim/Stim-GB/NI_M.PNG","66","","","1","exp","400","1","1","IC","b","true"
"fixation-image-keyboard-release-original","29624","863166","0.0-23.0-1.167","","719.0499999560416","Stim/Stim-BG/IN_I.PNG","86","","","1","exp","100","1","0","C","v","true"
"fixation-image-keyboard-release-original","29669","866073","0.0-23.0-1.168","","663.6050000088289","Stim/Stim-BG/MM_M.PNG","66","","","2","exp","400","2","1","C","b","true"
"fixation-image-keyboard-release-original","29690","868769","0.0-23.0-1.169","","582.8299999702722","Stim/Stim-BG/MM_M.PNG","86","","","2","exp","700","2","1","C","b","false"
"fixation-image-keyboard-release-original","29765","871872","0.0-23.0-1.170","","704.1449999669567","Stim/Stim-GB/NM_M.PNG","66","","","1","exp","400","2","1","C","b","true"
"fixation-image-keyboard-release-original","29834","874845","0.0-23.0-1.171","","595.0299999676645","Stim/Stim-GB/MN_M.PNG","86","","","1","exp","100","2","1","C","b","false"
"fixation-image-keyboard-release-original","29925","878044","0.0-23.0-1.172","","690.3350000502542","Stim/Stim-GB/MM_I.PNG","66","","","2","exp","400","2","0","IC","v","false"
"fixation-image-keyboard-release-original","30001","881259","0.0-23.0-1.173","","792.3700000392273","Stim/Stim-BG/IN_I.PNG","86","","","1","exp","700","1","0","C","v","true"
"fixation-image-keyboard-release-original","30073","884322","0.0-23.0-1.174","","687.9100000951439","Stim/Stim-GB/NI_M.PNG","66","","","1","exp","100","1","1","IC","b","true"
"fixation-image-keyboard-release-original","30130","887576","0.0-23.0-1.175","","923.795000067912","Stim/Stim-GB/NI_M.PNG","66","","","1","exp","700","1","1","IC","b","true"
"fixation-image-keyboard-release-original","30196","890544","0.0-23.0-1.176","","595.1099999947473","Stim/Stim-GB/NM_I.PNG","66","","","1","exp","400","2","0","IC","v","false"
"fixation-image-keyboard-release-original","30253","893534","0.0-23.0-1.177","","665.3800000203773","Stim/Stim-BG/MM_I.PNG","66","","","2","exp","100","2","0","IC","v","false"
"fixation-image-keyboard-release-original","30313","897122","0.0-23.0-1.178","","1268.8349999953061","Stim/Stim-GB/MN_M.PNG","66","","","1","exp","700","2","1","C","b","true"
"fixation-image-keyboard-release-original","30391","900209","0.0-23.0-1.179","","657.550000003539","Stim/Stim-BG/IN_M.PNG","86","","","1","exp","400","1","1","IC","b","false"
"fixation-image-keyboard-release-original","30407","902966","0.0-23.0-1.180","","651.4949999982491","Stim/Stim-GB/MM_M.PNG","86","","","2","exp","400","2","1","C","b","false"
"fixation-image-keyboard-release-original","30441","905776","0.0-23.0-1.181","","632.9899999545887","Stim/Stim-BG/IN_I.PNG","86","","","1","exp","400","1","0","C","v","true"
"fixation-image-keyboard-release-original","30478","908540","0.0-23.0-1.182","","571.3899999391288","Stim/Stim-GB/NI_M.PNG","66","","","1","exp","400","1","1","IC","b","true"
"fixation-image-keyboard-release-original","30479","911296","0.0-23.0-1.183","","745.0199999148026","Stim/Stim-GB/II_I.PNG","86","","","2","exp","700","1","0","C","v","true"
"fixation-image-keyboard-release-original","30495","914116","0.0-23.0-1.184","","737.3450000304729","Stim/Stim-GB/MM_M.PNG","66","","","2","exp","400","2","1","C","b","true"
"fixation-image-keyboard-release-original","30566","917084","0.0-23.0-1.185","","575.4099999321625","Stim/Stim-BG/NI_I.PNG","66","","","1","exp","700","1","0","C","v","false"
"fixation-image-keyboard-release-original","30568","919881","0.0-23.0-1.186","","777.1199999842793","Stim/Stim-GB/NI_I.PNG","66","","","1","exp","700","1","0","C","v","false"
"fixation-image-keyboard-release-original","30616","922660","0.0-23.0-1.187","","523.9499999443069","Stim/Stim-GB/NM_I.PNG","66","","","1","exp","100","2","0","IC","v","false"
"fixation-image-keyboard-release-original","30686","925467","0.0-23.0-1.188","","419.9399999342859","Stim/Stim-BG/IN_M.PNG","86","","","1","exp","700","1","1","IC","b","false"
"fixation-image-keyboard-release-original","30716","928170","0.0-23.0-1.189","","543.2550000259653","Stim/Stim-BG/NM_I.PNG","66","","","1","exp","100","2","0","IC","v","false"
"fixation-image-keyboard-release-original","30771","931141","0.0-23.0-1.190","","653.870000038296","Stim/Stim-BG/NM_M.PNG","66","","","1","exp","400","2","1","C","b","true"
"fixation-image-keyboard-release-original","30772","933726","0.0-23.0-1.191","","577.3599999956787","Stim/Stim-BG/MN_I.PNG","86","","","1","exp","700","2","0","IC","v","true"
"call-function","30773","934729","0.0-24.0","","","","","","","","","","","","","",""
"survey-html-form","30774","939063","0.0-25.0","","4331.44999993965","","","{""hands2"":""Both""}","","","","","","","","",""
"html-keyboard-response","30775","956209","0.0-26.0","","17144.484999938868","<p><h1>This is the end of the experiment.</h1></p><p>Please <a href='Debrief.pdf' target='_blank'>Click Here</a> (this will open a new window) to read more about the study.</p><p>Press ENTER to end the experiment (you will be sent to Prolific - if something goes wrong, the completion code for this study is: 3F11CBBF).</p>","13","","","","","","","","","",""
"pavlovia","30776","956224","0.0-27.0","","","","","","","","","","","","","",""
