"trial_type","trial_index","time_elapsed","internal_node_id","value","rt","stimulus","key_press","responses","success","hand","test","gap","finger","cue","con","correct_response","correct"
"pavlovia","0","2","0.0-0.0","","","","","","","","","","","","","",""
"call-function","1","3","0.0-1.0","","","","","","","","","","","","","",""
"html-keyboard-response","2","15451","0.0-2.0","","15446","<div class = 'my_window'><p><h1>Welcome!</h1><br><p><p>This experiment is adminterested by Carl Michael Galang (McMaster University), Dr. Emiel Cracco (Ghent University), Dr. Marcel Brass (Humboldt University of Berlin), & Dr. Sukhvinder Obhi (McMaster University).</p><p>The purpose of this study is to explore basic perceptual processing mechanisms.</p><p>Information gathered during this study will be written up for publication in an academic journal. While there are no direct benefits to you taking part in this study (other than learning more about the research topic and getting paid on Prolific), the results of this study will provide us with a better understanding of perceptual and sensory processes. To learn about this study, particularly in the terms of any associated risks or harms, how confidentiality and anonymity will be handled, withdrawal procedures, incentives that are promised, how to obtain information about the results, etc., please read the accompanying letter of information - <a href='LOI.pdf' target='_blank'>Click Here</a> (this will open a new window).</p><p>This study should take around 10min to complete.</p><p>If you have questions or need more information about the study itself, please contact me at: galangc@mcmaster.ca. This study has been reviewed by the McMaster University Research Ethics Board and received ethics clearance. If you have concerns or questions about your rights as a participant or about the way the study is conducted, please contact the McMaster Research Ethics Secretariat at ethicsoffice@mcmaster.ca.</p><br><p><h1>CONSENT</h1></p><p>I have read the information presented in the letter of information and I agree to participate in this study.</p><p>By pressing Enter, I consent to the above.<p>","13","","","","","","","","","",""
"survey-html-form","3","28737","0.0-3.0","","13286","","","{""1"":""60305f7db9bd92ecdfd825dd""}","","","","","","","","",""
"fullscreen","4","32682","0.0-4.0","","","","","","true","","","","","","","",""
"call-function","5","32684","0.0-5.0","","","","","","","","","","","","","",""
"html-keyboard-response","6","126850","0.0-6.0","","94164","<div class = 'my_window'><h1>Instructions</h1><p>Your task in this experiment is to respond to the letters I or M as they appear on the screen. Unlike most experiments, your task will be to <strong><u>release</u></strong> keys (not push).</p><p>Before each trial starts, please ensure that you keep the <strong><u>V key</u></strong> and <strong><u>B key</u></strong> depressed with your <strong><u>right index finger</u></strong> on the <strong><u>V key</u></strong> and your <strong><u>right middle finger</u></strong> on the <strong><u>B key</u></strong> (see image below). Responses on this experiment will consist of lifting your <strong><u>right index finger</u></strong> to release the <strong><u>V key</u></strong> if you see the letter <strong><u>I</u></strong> or lifting your <strong><u>right middle finger</u></strong> to release the <strong><u>B key</u></strong> if you see the letter <strong><u>M</u></strong> as fast as you can. It is important that you <strong><u>only use your right hand</u></strong> to do the task.</p><p><img src='keyboard_img.png'></p><p>While you complete this task, there will be a couple of hands moving in the background. Ignore them and focus on the task.</p><p>Press ENTER to continue.</p></div>","13","","","","","","","","","",""
"html-keyboard-response","7","128669","0.0-7.0","","1818","<div class = 'my_window'><h1>Practice</h1><p>You will first do a practice phase. In the practice phase, you will get feedback on your performance. The practice phase contains 10 trials, but will add an extra trial every time you respond incorrectly.</p><p><p>Before each trial starts, please ensure that you keep the <strong><u>V key</u></strong> and <strong><u>B key</u></strong> depressed with your <strong><u>right index finger</u></strong> on the <strong><u>V key</u></strong> and your <strong><u>right middle finger</u></strong> on the <strong><u>B key</u></strong> (see image below). Responses on this experiment will consist of lifting your <strong><u>right index finger</u></strong> to release the <strong><u>V key</u></strong> if you see the letter <strong><u>I</u></strong> or lifting your <strong><u>right middle finger</u></strong> to release the <strong><u>B key</u></strong> if you see the letter <strong><u>M</u></strong> as fast as you can. It is important that you <strong><u>only use your right hand</u></strong> to do the task.</p><p><img src='keyboard_img.png'></p><p>While you complete this task, there will be a couple of hands moving in the background. Ignore them and focus on the task.</p><p>This is a reaction time experiment, so please try to respond as fast as possible while at the same time minimizing mistakes.</p><p>Press ENTER to begin.</p></div>","13","","","","","","","","","",""
"fixation-image-keyboard-release-original","8","131202","0.0-8.0-1.0","","1516","Stim/Stim-GB/II_I.PNG","86","","","2","exp","100","1","0","C","v","true"
"html-keyboard-response","9","132322","0.0-8.0-2.0","","null","<p> CORRECT </p>","null","","","","","","","","","",""
"fixation-image-keyboard-release-original","65","135124","0.0-9.0-1.0","","924","Stim/Stim-BG/II_M.PNG","66","","","2","exp","100","1","1","IC","b","true"
"html-keyboard-response","66","136240","0.0-9.0-2.0","","null","<p> CORRECT </p>","null","","","","","","","","","",""
"fixation-image-keyboard-release-original","154","139194","0.0-10.0-1.0","","568","Stim/Stim-BG/MM_I.PNG","86","","","2","exp","400","2","0","IC","v","true"
"html-keyboard-response","155","140299","0.0-10.0-2.0","","null","<p> CORRECT </p>","null","","","","","","","","","",""
"fixation-image-keyboard-release-original","205","142496","0.0-11.0-1.0","","416","Stim/Stim-BG/II_I.PNG","66","","","2","exp","400","1","0","C","v","false"
"html-keyboard-response","206","143611","0.0-11.0-2.0","","null","<p> INCORRECT </p>","null","","","","","","","","","",""
"fixation-image-keyboard-release-original","338","147799","0.0-11.1-1.1","","1122","Stim/Stim-GB/II_M.PNG","86","","","2","exp","400","1","1","IC","b","false"
"html-keyboard-response","339","148900","0.0-11.1-2.1","","null","<p> INCORRECT </p>","null","","","","","","","","","",""
"fixation-image-keyboard-release-original","408","151719","0.0-11.2-1.2","","730","Stim/Stim-BG/II_I.PNG","66","","","2","exp","400","1","0","C","v","false"
"html-keyboard-response","409","152829","0.0-11.2-2.2","","null","<p> INCORRECT </p>","null","","","","","","","","","",""
"fixation-image-keyboard-release-original","469","155425","0.0-11.3-1.3","","655","Stim/Stim-GB/NM_I.PNG","66","","","1","exp","700","2","0","IC","v","false"
"html-keyboard-response","470","156537","0.0-11.3-2.3","","null","<p> INCORRECT </p>","null","","","","","","","","","",""
"fixation-image-keyboard-release-original","522","159124","0.0-11.4-1.4","","776","Stim/Stim-BG/MM_I.PNG","86","","","2","exp","400","2","0","IC","v","true"
"html-keyboard-response","523","160239","0.0-11.4-2.4","","null","<p> CORRECT </p>","null","","","","","","","","","",""
"fixation-image-keyboard-release-original","586","163288","0.0-12.0-1.0","","1071","Stim/Stim-GB/MM_M.PNG","66","","","2","exp","700","2","1","C","b","true"
"html-keyboard-response","587","164403","0.0-12.0-2.0","","null","<p> CORRECT </p>","null","","","","","","","","","",""
"fixation-image-keyboard-release-original","637","167183","0.0-13.0-1.0","","1002","Stim/Stim-GB/IN_M.PNG","86","","","1","exp","400","1","1","IC","b","false"
"html-keyboard-response","638","168300","0.0-13.0-2.0","","null","<p> INCORRECT </p>","null","","","","","","","","","",""
"fixation-image-keyboard-release-original","674","170789","0.0-13.1-1.1","","924","Stim/Stim-GB/II_I.PNG","86","","","2","exp","700","1","0","C","v","true"
"html-keyboard-response","675","171901","0.0-13.1-2.1","","null","<p> CORRECT </p>","null","","","","","","","","","",""
"fixation-image-keyboard-release-original","696","177149","0.0-14.0-1.0","","3933","Stim/Stim-BG/MN_I.PNG","66","","","1","exp","700","2","0","IC","v","false"
"html-keyboard-response","697","178272","0.0-14.0-2.0","","null","<p> INCORRECT </p>","null","","","","","","","","","",""
"fixation-image-keyboard-release-original","698","180127","0.0-14.1-1.1","","848","Stim/Stim-GB/NI_M.PNG","86","","","1","exp","400","1","1","IC","b","false"
"html-keyboard-response","699","181248","0.0-14.1-2.1","","null","<p> INCORRECT </p>","null","","","","","","","","","",""
"fixation-image-keyboard-release-original","701","183072","0.0-14.2-1.2","","799","Stim/Stim-BG/II_M.PNG","66","","","2","exp","100","1","1","IC","b","true"
"html-keyboard-response","702","184180","0.0-14.2-2.2","","null","<p> CORRECT </p>","null","","","","","","","","","",""
"fixation-image-keyboard-release-original","880","188712","0.0-15.0-1.0","","763","Stim/Stim-BG/MN_M.PNG","66","","","1","exp","400","2","1","C","b","true"
"html-keyboard-response","881","189819","0.0-15.0-2.0","","null","<p> CORRECT </p>","null","","","","","","","","","",""
"fixation-image-keyboard-release-original","935","192500","0.0-16.0-1.0","","864","Stim/Stim-GB/NI_I.PNG","86","","","1","exp","100","1","0","C","v","true"
"html-keyboard-response","936","193614","0.0-16.0-2.0","","null","<p> CORRECT </p>","null","","","","","","","","","",""
"fixation-image-keyboard-release-original","981","196077","0.0-17.0-1.0","","765","Stim/Stim-GB/MM_M.PNG","66","","","2","exp","400","2","1","C","b","true"
"html-keyboard-response","982","197196","0.0-17.0-2.0","","null","<p> CORRECT </p>","null","","","","","","","","","",""
"call-function","983","197197","0.0-18.0","","","","","","","","","","","","","",""
"survey-html-form","984","210393","0.0-19.0","","13195","","","{""hands"":""Right""}","","","","","","","","",""
"html-keyboard-response","985","219472","0.0-20.0","","9077","If you are using <strong><u>just</u></strong> your <strong></u>right hand</u></strong>, then good job! If not, please do so in the main part of the experiment.<br><br>Press Enter to continue","13","","","","","","","","","",""
"html-keyboard-response","986","271570","0.0-21.0","","52097","<div class = 'my_window'><h1>Main Trials</h1><p>Good Job! We will now begin the main trials. In the main trials, you will <strong>not</strong> get feedback. There are 192 trials overall. You will get a self-paced break every 48 trials.</p><p>Instructions Reminder: <p>Before each trial starts, please ensure that you keep the <strong><u>V key</u></strong> and <strong><u>B key</u></strong> depressed with your <strong><u>right index finger</u></strong> on the <strong><u>V key</u></strong> and your <strong><u>right middle finger</u></strong> on the <strong><u>B key</u></strong> (see image below). Responses on this experiment will consist of lifting your <strong><u>right index finger</u></strong> to release the <strong><u>V key</u></strong> if you see the letter <strong><u>I</u></strong> or lifting your <strong><u>right middle finger</u></strong> to release the <strong><u>B key</u></strong> if you see the letter <strong><u>M</u></strong> as fast as you can. It is important that you <strong><u>only use your right hand</u></strong> to do the task.</p><p><img src='keyboard_img.png'></p><p>While you complete this task, there will be a couple of hands moving in the background. Ignore them and focus on the task.</p><p>Remember: this is a reaction time experiment, so please try to respond as fast as possible while at the same time minimizing mistakes.</p><p>Press ENTER to begin.</p></div>","13","","","","","","","","","",""
"call-function","987","271571","0.0-22.0","","","","","","","","","","","","","",""
"fixation-image-keyboard-release-original","988","273557","0.0-23.0-1.0","","972","Stim/Stim-GB/MN_M.PNG","86","","","1","exp","700","2","1","C","b","false"
"fixation-image-keyboard-release-original","1130","281218","0.0-23.0-1.1","","3439","Stim/Stim-BG/II_M.PNG","86","","","2","exp","100","1","1","IC","b","false"
"fixation-image-keyboard-release-original","1131","284466","0.0-23.0-1.2","","1241","Stim/Stim-GB/NI_M.PNG","86","","","1","exp","100","1","1","IC","b","false"
"fixation-image-keyboard-release-original","1132","288206","0.0-23.0-1.3","","1725","Stim/Stim-BG/II_I.PNG","66","","","2","exp","100","1","0","C","v","false"
"fixation-image-keyboard-release-original","1133","291460","0.0-23.0-1.4","","1248","Stim/Stim-BG/MM_M.PNG","66","","","2","exp","700","2","1","C","b","true"
"fixation-image-keyboard-release-original","1134","294162","0.0-23.0-1.5","","690","Stim/Stim-BG/IN_M.PNG","86","","","1","exp","400","1","1","IC","b","false"
"fixation-image-keyboard-release-original","1135","296945","0.0-23.0-1.6","","764","Stim/Stim-BG/MM_M.PNG","66","","","2","exp","400","2","1","C","b","true"
"fixation-image-keyboard-release-original","1136","300105","0.0-23.0-1.7","","1147","Stim/Stim-GB/MM_I.PNG","86","","","2","exp","400","2","0","IC","v","true"
"fixation-image-keyboard-release-original","1137","302767","0.0-23.0-1.8","","652","Stim/Stim-GB/MN_M.PNG","86","","","1","exp","400","2","1","C","b","false"
"fixation-image-keyboard-release-original","1138","306056","0.0-23.0-1.9","","1271","Stim/Stim-GB/NI_I.PNG","66","","","1","exp","400","1","0","C","v","false"
"fixation-image-keyboard-release-original","1139","308826","0.0-23.0-1.10","","751","Stim/Stim-BG/II_M.PNG","86","","","2","exp","700","1","1","IC","b","false"
"fixation-image-keyboard-release-original","1140","311635","0.0-23.0-1.11","","798","Stim/Stim-GB/II_M.PNG","86","","","2","exp","400","1","1","IC","b","false"
"fixation-image-keyboard-release-original","1141","314317","0.0-23.0-1.12","","669","Stim/Stim-GB/NI_I.PNG","66","","","1","exp","700","1","0","C","v","false"
"fixation-image-keyboard-release-original","1142","317505","0.0-23.0-1.13","","1167","Stim/Stim-BG/MN_M.PNG","86","","","1","exp","400","2","1","C","b","false"
"fixation-image-keyboard-release-original","1143","320207","0.0-23.0-1.14","","680","Stim/Stim-GB/MM_M.PNG","86","","","2","exp","100","2","1","C","b","false"
"fixation-image-keyboard-release-original","1144","322788","0.0-23.0-1.15","","574","Stim/Stim-GB/IN_M.PNG","86","","","1","exp","400","1","1","IC","b","false"
"fixation-image-keyboard-release-original","1145","325260","0.0-23.0-1.16","","453","Stim/Stim-BG/NM_I.PNG","66","","","1","exp","700","2","0","IC","v","false"
"fixation-image-keyboard-release-original","1146","327842","0.0-23.0-1.17","","567","Stim/Stim-GB/MN_I.PNG","66","","","1","exp","100","2","0","IC","v","false"
"fixation-image-keyboard-release-original","1147","330368","0.0-23.0-1.18","","503","Stim/Stim-GB/MM_I.PNG","66","","","2","exp","700","2","0","IC","v","false"
"fixation-image-keyboard-release-original","1148","333024","0.0-23.0-1.19","","645","Stim/Stim-GB/IN_M.PNG","86","","","1","exp","100","1","1","IC","b","false"
"fixation-image-keyboard-release-original","1149","335606","0.0-23.0-1.20","","556","Stim/Stim-BG/NI_M.PNG","86","","","1","exp","700","1","1","IC","b","false"
"fixation-image-keyboard-release-original","1150","338179","0.0-23.0-1.21","","559","Stim/Stim-GB/NM_M.PNG","86","","","1","exp","100","2","1","C","b","false"
"fixation-image-keyboard-release-original","1151","340564","0.0-23.0-1.22","","364","Stim/Stim-BG/MN_I.PNG","66","","","1","exp","700","2","0","IC","v","false"
"fixation-image-keyboard-release-original","1152","343207","0.0-23.0-1.23","","620","Stim/Stim-GB/II_I.PNG","66","","","2","exp","100","1","0","C","v","false"
"fixation-image-keyboard-release-original","1153","345707","0.0-23.0-1.24","","478","Stim/Stim-BG/MM_I.PNG","66","","","2","exp","700","2","0","IC","v","false"
"fixation-image-keyboard-release-original","1154","348239","0.0-23.0-1.25","","514","Stim/Stim-GB/II_M.PNG","86","","","2","exp","100","1","1","IC","b","false"
"fixation-image-keyboard-release-original","1155","350752","0.0-23.0-1.26","","494","Stim/Stim-GB/MM_I.PNG","66","","","2","exp","100","2","0","IC","v","false"
"fixation-image-keyboard-release-original","1156","353279","0.0-23.0-1.27","","505","Stim/Stim-BG/II_M.PNG","86","","","2","exp","100","1","1","IC","b","false"
"fixation-image-keyboard-release-original","1157","355638","0.0-23.0-1.28","","343","Stim/Stim-BG/NM_I.PNG","66","","","1","exp","100","2","0","IC","v","false"
"fixation-image-keyboard-release-original","1158","358016","0.0-23.0-1.29","","353","Stim/Stim-BG/II_M.PNG","86","","","2","exp","100","1","1","IC","b","false"
"fixation-image-keyboard-release-original","1159","360422","0.0-23.0-1.30","","391","Stim/Stim-GB/NI_I.PNG","66","","","1","exp","400","1","0","C","v","false"
"fixation-image-keyboard-release-original","1160","362989","0.0-23.0-1.31","","544","Stim/Stim-BG/NM_M.PNG","86","","","1","exp","700","2","1","C","b","false"
"fixation-image-keyboard-release-original","1161","365409","0.0-23.0-1.32","","398","Stim/Stim-BG/NM_M.PNG","66","","","1","exp","700","2","1","C","b","true"
"fixation-image-keyboard-release-original","1162","367854","0.0-23.0-1.33","","437","Stim/Stim-GB/NM_I.PNG","66","","","1","exp","400","2","0","IC","v","false"
"fixation-image-keyboard-release-original","1163","370246","0.0-23.0-1.34","","375","Stim/Stim-GB/IN_M.PNG","86","","","1","exp","100","1","1","IC","b","false"
"fixation-image-keyboard-release-original","1164","372887","0.0-23.0-1.35","","623","Stim/Stim-BG/IN_I.PNG","66","","","1","exp","700","1","0","C","v","false"
"fixation-image-keyboard-release-original","1165","375515","0.0-23.0-1.36","","607","Stim/Stim-GB/NI_M.PNG","86","","","1","exp","700","1","1","IC","b","false"
"fixation-image-keyboard-release-original","1166","378076","0.0-23.0-1.37","","545","Stim/Stim-GB/IN_I.PNG","66","","","1","exp","400","1","0","C","v","false"
"fixation-image-keyboard-release-original","1167","380516","0.0-23.0-1.38","","424","Stim/Stim-GB/MN_M.PNG","86","","","1","exp","400","2","1","C","b","false"
"fixation-image-keyboard-release-original","1168","383110","0.0-23.0-1.39","","580","Stim/Stim-BG/MN_M.PNG","86","","","1","exp","100","2","1","C","b","false"
"fixation-image-keyboard-release-original","1169","385636","0.0-23.0-1.40","","521","Stim/Stim-BG/MM_M.PNG","86","","","2","exp","400","2","1","C","b","false"
"fixation-image-keyboard-release-original","1170","388014","0.0-23.0-1.41","","365","Stim/Stim-BG/MM_I.PNG","66","","","2","exp","100","2","0","IC","v","false"
"fixation-image-keyboard-release-original","1171","390487","0.0-23.0-1.42","","451","Stim/Stim-GB/II_I.PNG","66","","","2","exp","400","1","0","C","v","false"
"fixation-image-keyboard-release-original","1172","392961","0.0-23.0-1.43","","454","Stim/Stim-GB/NI_M.PNG","86","","","1","exp","700","1","1","IC","b","false"
"fixation-image-keyboard-release-original","1173","395393","0.0-23.0-1.44","","420","Stim/Stim-BG/NM_M.PNG","86","","","1","exp","100","2","1","C","b","false"
"fixation-image-keyboard-release-original","1174","397832","0.0-23.0-1.45","","419","Stim/Stim-GB/NM_I.PNG","86","","","1","exp","700","2","0","IC","v","true"
"fixation-image-keyboard-release-original","1175","400331","0.0-23.0-1.46","","483","Stim/Stim-BG/NI_I.PNG","66","","","1","exp","700","1","0","C","v","false"
"fixation-image-keyboard-release-original","1176","402938","0.0-23.0-1.47","","590","Stim/Stim-BG/IN_M.PNG","86","","","1","exp","100","1","1","IC","b","false"
"html-keyboard-response","1177","411909","0.0-23.0-2.47-0.47","","7963","Take a break. Feel free to start again by pressing Enter.","13","","","","","","","","","",""
"fixation-image-keyboard-release-original","1384","416612","0.0-23.0-1.48","","500","Stim/Stim-BG/MM_M.PNG","86","","","2","exp","100","2","1","C","b","false"
"fixation-image-keyboard-release-original","1385","419090","0.0-23.0-1.49","","464","Stim/Stim-BG/MM_I.PNG","66","","","2","exp","100","2","0","IC","v","false"
"fixation-image-keyboard-release-original","1386","421611","0.0-23.0-1.50","","506","Stim/Stim-GB/MN_I.PNG","66","","","1","exp","700","2","0","IC","v","false"
"fixation-image-keyboard-release-original","1387","423963","0.0-23.0-1.51","","341","Stim/Stim-GB/MN_M.PNG","86","","","1","exp","100","2","1","C","b","false"
"fixation-image-keyboard-release-original","1388","426470","0.0-23.0-1.52","","490","Stim/Stim-GB/II_I.PNG","66","","","2","exp","700","1","0","C","v","false"
"fixation-image-keyboard-release-original","1389","428955","0.0-23.0-1.53","","465","Stim/Stim-GB/MM_M.PNG","86","","","2","exp","400","2","1","C","b","false"
"fixation-image-keyboard-release-original","1390","431422","0.0-23.0-1.54","","447","Stim/Stim-GB/II_I.PNG","86","","","2","exp","100","1","0","C","v","true"
"fixation-image-keyboard-release-original","1391","433909","0.0-23.0-1.55","","464","Stim/Stim-GB/II_I.PNG","66","","","2","exp","400","1","0","C","v","false"
"fixation-image-keyboard-release-original","1392","436407","0.0-23.0-1.56","","485","Stim/Stim-GB/MM_I.PNG","66","","","2","exp","700","2","0","IC","v","false"
"fixation-image-keyboard-release-original","1393","438847","0.0-23.0-1.57","","424","Stim/Stim-GB/NI_I.PNG","66","","","1","exp","100","1","0","C","v","false"
"fixation-image-keyboard-release-original","1394","441232","0.0-23.0-1.58","","379","Stim/Stim-GB/MM_I.PNG","66","","","2","exp","100","2","0","IC","v","false"
"fixation-image-keyboard-release-original","1395","443753","0.0-23.0-1.59","","513","Stim/Stim-BG/MM_M.PNG","86","","","2","exp","700","2","1","C","b","false"
"fixation-image-keyboard-release-original","1396","446219","0.0-23.0-1.60","","452","Stim/Stim-BG/II_M.PNG","86","","","2","exp","400","1","1","IC","b","false"
"fixation-image-keyboard-release-original","1397","448691","0.0-23.0-1.61","","455","Stim/Stim-BG/MN_M.PNG","86","","","1","exp","400","2","1","C","b","false"
"fixation-image-keyboard-release-original","1398","451110","0.0-23.0-1.62","","410","Stim/Stim-GB/NM_I.PNG","66","","","1","exp","700","2","0","IC","v","false"
"fixation-image-keyboard-release-original","1399","453665","0.0-23.0-1.63","","543","Stim/Stim-GB/II_I.PNG","66","","","2","exp","700","1","0","C","v","false"
"fixation-image-keyboard-release-original","1400","456164","0.0-23.0-1.64","","486","Stim/Stim-BG/MN_M.PNG","86","","","1","exp","100","2","1","C","b","false"
"fixation-image-keyboard-release-original","1401","458711","0.0-23.0-1.65","","535","Stim/Stim-BG/MM_I.PNG","66","","","2","exp","400","2","0","IC","v","false"
"fixation-image-keyboard-release-original","1402","461252","0.0-23.0-1.66","","526","Stim/Stim-BG/IN_M.PNG","86","","","1","exp","100","1","1","IC","b","false"
"fixation-image-keyboard-release-original","1403","463759","0.0-23.0-1.67","","480","Stim/Stim-GB/MM_M.PNG","86","","","2","exp","400","2","1","C","b","false"
"fixation-image-keyboard-release-original","1404","466298","0.0-23.0-1.68","","518","Stim/Stim-GB/II_M.PNG","86","","","2","exp","400","1","1","IC","b","false"
"fixation-image-keyboard-release-original","1405","468764","0.0-23.0-1.69","","453","Stim/Stim-GB/II_M.PNG","86","","","2","exp","400","1","1","IC","b","false"
"fixation-image-keyboard-release-original","1406","471142","0.0-23.0-1.70","","352","Stim/Stim-BG/MM_I.PNG","66","","","2","exp","700","2","0","IC","v","false"
"fixation-image-keyboard-release-original","1407","473575","0.0-23.0-1.71","","414","Stim/Stim-BG/NM_M.PNG","86","","","1","exp","400","2","1","C","b","false"
"fixation-image-keyboard-release-original","1408","475967","0.0-23.0-1.72","","369","Stim/Stim-BG/II_M.PNG","86","","","2","exp","400","1","1","IC","b","false"
"fixation-image-keyboard-release-original","1409","478379","0.0-23.0-1.73","","406","Stim/Stim-BG/II_M.PNG","86","","","2","exp","400","1","1","IC","b","false"
"fixation-image-keyboard-release-original","1410","480778","0.0-23.0-1.74","","383","Stim/Stim-BG/NM_M.PNG","86","","","1","exp","400","2","1","C","b","false"
"fixation-image-keyboard-release-original","1411","483124","0.0-23.0-1.75","","332","Stim/Stim-GB/IN_I.PNG","66","","","1","exp","700","1","0","C","v","false"
"fixation-image-keyboard-release-original","1412","485501","0.0-23.0-1.76","","355","Stim/Stim-BG/II_I.PNG","66","","","2","exp","400","1","0","C","v","false"
"fixation-image-keyboard-release-original","1413","487960","0.0-23.0-1.77","","437","Stim/Stim-GB/II_I.PNG","66","","","2","exp","400","1","0","C","v","false"
"fixation-image-keyboard-release-original","1414","490413","0.0-23.0-1.78","","438","Stim/Stim-GB/MM_I.PNG","86","","","2","exp","400","2","0","IC","v","true"
"fixation-image-keyboard-release-original","1440","493473","0.0-23.0-1.79","","658","Stim/Stim-BG/IN_I.PNG","66","","","1","exp","700","1","0","C","v","false"
"fixation-image-keyboard-release-original","1441","495953","0.0-23.0-1.80","","465","Stim/Stim-BG/II_I.PNG","66","","","2","exp","700","1","0","C","v","false"
"fixation-image-keyboard-release-original","1442","498559","0.0-23.0-1.81","","580","Stim/Stim-GB/MN_M.PNG","86","","","1","exp","700","2","1","C","b","false"
"fixation-image-keyboard-release-original","1443","500958","0.0-23.0-1.82","","384","Stim/Stim-BG/II_M.PNG","86","","","2","exp","400","1","1","IC","b","false"
"fixation-image-keyboard-release-original","1444","503505","0.0-23.0-1.83","","534","Stim/Stim-BG/NM_I.PNG","66","","","1","exp","400","2","0","IC","v","false"
"fixation-image-keyboard-release-original","1445","505910","0.0-23.0-1.84","","395","Stim/Stim-BG/NI_I.PNG","66","","","1","exp","400","1","0","C","v","false"
"fixation-image-keyboard-release-original","1446","508343","0.0-23.0-1.85","","418","Stim/Stim-GB/II_I.PNG","66","","","2","exp","100","1","0","C","v","false"
"fixation-image-keyboard-release-original","1447","510721","0.0-23.0-1.86","","356","Stim/Stim-BG/II_I.PNG","66","","","2","exp","400","1","0","C","v","false"
"fixation-image-keyboard-release-original","1448","513080","0.0-23.0-1.87","","341","Stim/Stim-BG/NI_I.PNG","66","","","1","exp","100","1","0","C","v","false"
"fixation-image-keyboard-release-original","1449","515641","0.0-23.0-1.88","","539","Stim/Stim-BG/MM_M.PNG","86","","","2","exp","100","2","1","C","b","false"
"fixation-image-keyboard-release-original","1450","518073","0.0-23.0-1.89","","411","Stim/Stim-BG/NI_I.PNG","66","","","1","exp","400","1","0","C","v","false"
"fixation-image-keyboard-release-original","1451","520688","0.0-23.0-1.90","","592","Stim/Stim-BG/II_I.PNG","66","","","2","exp","700","1","0","C","v","false"
"fixation-image-keyboard-release-original","1452","523194","0.0-23.0-1.91","","497","Stim/Stim-GB/II_M.PNG","86","","","2","exp","700","1","1","IC","b","false"
"fixation-image-keyboard-release-original","1453","526085","0.0-23.0-1.92","","877","Stim/Stim-GB/II_I.PNG","66","","","2","exp","100","1","0","C","v","false"
"fixation-image-keyboard-release-original","1454","528472","0.0-23.0-1.93","","375","Stim/Stim-BG/MM_I.PNG","66","","","2","exp","100","2","0","IC","v","false"
"fixation-image-keyboard-release-original","1455","531125","0.0-23.0-1.94","","641","Stim/Stim-GB/NI_M.PNG","86","","","1","exp","400","1","1","IC","b","false"
"fixation-image-keyboard-release-original","1456","533632","0.0-23.0-1.95","","498","Stim/Stim-BG/II_I.PNG","66","","","2","exp","100","1","0","C","v","false"
"html-keyboard-response","1457","548038","0.0-23.0-2.95-0.95","","13392","Take a break. Feel free to start again by pressing Enter.","13","","","","","","","","","",""
"fixation-image-keyboard-release-original","1511","550397","0.0-23.0-1.96","","530","Stim/Stim-BG/NI_M.PNG","86","","","1","exp","400","1","1","IC","b","false"
"fixation-image-keyboard-release-original","1512","552842","0.0-23.0-1.97","","432","Stim/Stim-BG/NI_M.PNG","86","","","1","exp","400","1","1","IC","b","false"
"fixation-image-keyboard-release-original","1513","555275","0.0-23.0-1.98","","411","Stim/Stim-GB/IN_M.PNG","86","","","1","exp","700","1","1","IC","b","false"
"fixation-image-keyboard-release-original","1514","557659","0.0-23.0-1.99","","368","Stim/Stim-GB/MM_I.PNG","66","","","2","exp","700","2","0","IC","v","false"
"fixation-image-keyboard-release-original","1515","560072","0.0-23.0-1.100","","403","Stim/Stim-GB/NM_I.PNG","66","","","1","exp","100","2","0","IC","v","false"
"fixation-image-keyboard-release-original","1516","562484","0.0-23.0-1.101","","396","Stim/Stim-GB/IN_I.PNG","66","","","1","exp","400","1","0","C","v","false"
"fixation-image-keyboard-release-original","1517","565072","0.0-23.0-1.102","","571","Stim/Stim-BG/IN_I.PNG","66","","","1","exp","400","1","0","C","v","false"
"fixation-image-keyboard-release-original","1518","567497","0.0-23.0-1.103","","411","Stim/Stim-GB/MM_I.PNG","66","","","2","exp","700","2","0","IC","v","false"
"fixation-image-keyboard-release-original","1519","569916","0.0-23.0-1.104","","405","Stim/Stim-GB/MN_I.PNG","66","","","1","exp","400","2","0","IC","v","false"
"fixation-image-keyboard-release-original","1520","572342","0.0-23.0-1.105","","410","Stim/Stim-GB/MM_M.PNG","86","","","2","exp","700","2","1","C","b","false"
"fixation-image-keyboard-release-original","1521","574923","0.0-23.0-1.106","","566","Stim/Stim-BG/IN_I.PNG","66","","","1","exp","100","1","0","C","v","false"
"fixation-image-keyboard-release-original","1522","577483","0.0-23.0-1.107","","552","Stim/Stim-BG/NI_M.PNG","86","","","1","exp","100","1","1","IC","b","false"
"fixation-image-keyboard-release-original","1523","580023","0.0-23.0-1.108","","528","Stim/Stim-BG/IN_M.PNG","86","","","1","exp","700","1","1","IC","b","false"
"fixation-image-keyboard-release-original","1524","582592","0.0-23.0-1.109","","547","Stim/Stim-GB/NI_M.PNG","86","","","1","exp","100","1","1","IC","b","false"
"fixation-image-keyboard-release-original","1525","585043","0.0-23.0-1.110","","436","Stim/Stim-BG/NI_M.PNG","86","","","1","exp","700","1","1","IC","b","false"
"fixation-image-keyboard-release-original","1526","587510","0.0-23.0-1.111","","462","Stim/Stim-BG/MM_I.PNG","66","","","2","exp","400","2","0","IC","v","false"
"fixation-image-keyboard-release-original","1527","590003","0.0-23.0-1.112","","486","Stim/Stim-BG/MM_I.PNG","66","","","2","exp","400","2","0","IC","v","false"
"fixation-image-keyboard-release-original","1528","592428","0.0-23.0-1.113","","414","Stim/Stim-GB/MM_I.PNG","66","","","2","exp","400","2","0","IC","v","false"
"fixation-image-keyboard-release-original","1529","594968","0.0-23.0-1.114","","521","Stim/Stim-BG/MN_M.PNG","86","","","1","exp","700","2","1","C","b","false"
"fixation-image-keyboard-release-original","1530","597380","0.0-23.0-1.115","","401","Stim/Stim-BG/II_I.PNG","66","","","2","exp","100","1","0","C","v","false"
"fixation-image-keyboard-release-original","1531","599962","0.0-23.0-1.116","","560","Stim/Stim-GB/NM_M.PNG","86","","","1","exp","700","2","1","C","b","false"
"fixation-image-keyboard-release-original","1532","602380","0.0-23.0-1.117","","394","Stim/Stim-BG/MM_I.PNG","66","","","2","exp","700","2","0","IC","v","false"
"fixation-image-keyboard-release-original","1533","604773","0.0-23.0-1.118","","367","Stim/Stim-GB/IN_I.PNG","66","","","1","exp","100","1","0","C","v","false"
"fixation-image-keyboard-release-original","1534","607192","0.0-23.0-1.119","","399","Stim/Stim-GB/MN_I.PNG","66","","","1","exp","700","2","0","IC","v","false"
"fixation-image-keyboard-release-original","1535","609719","0.0-23.0-1.120","","507","Stim/Stim-BG/MM_M.PNG","86","","","2","exp","400","2","1","C","b","false"
"fixation-image-keyboard-release-original","1536","612225","0.0-23.0-1.121","","487","Stim/Stim-BG/MM_M.PNG","86","","","2","exp","700","2","1","C","b","false"
"fixation-image-keyboard-release-original","1537","614590","0.0-23.0-1.122","","343","Stim/Stim-GB/NM_I.PNG","66","","","1","exp","400","2","0","IC","v","false"
"fixation-image-keyboard-release-original","1538","617164","0.0-23.0-1.123","","553","Stim/Stim-BG/MN_I.PNG","66","","","1","exp","400","2","0","IC","v","false"
"fixation-image-keyboard-release-original","1539","619562","0.0-23.0-1.124","","375","Stim/Stim-BG/II_I.PNG","66","","","2","exp","400","1","0","C","v","false"
"fixation-image-keyboard-release-original","1540","622089","0.0-23.0-1.125","","512","Stim/Stim-BG/II_M.PNG","86","","","2","exp","700","1","1","IC","b","false"
"fixation-image-keyboard-release-original","1541","624503","0.0-23.0-1.126","","400","Stim/Stim-BG/NM_I.PNG","66","","","1","exp","100","2","0","IC","v","false"
"fixation-image-keyboard-release-original","1542","626894","0.0-23.0-1.127","","378","Stim/Stim-GB/NI_I.PNG","66","","","1","exp","100","1","0","C","v","false"
"fixation-image-keyboard-release-original","1543","629347","0.0-23.0-1.128","","449","Stim/Stim-GB/MM_M.PNG","86","","","2","exp","700","2","1","C","b","false"
"fixation-image-keyboard-release-original","1544","631719","0.0-23.0-1.129","","361","Stim/Stim-GB/NI_I.PNG","66","","","1","exp","700","1","0","C","v","false"
"fixation-image-keyboard-release-original","1545","634125","0.0-23.0-1.130","","393","Stim/Stim-BG/MM_M.PNG","86","","","2","exp","100","2","1","C","b","false"
"fixation-image-keyboard-release-original","1546","636691","0.0-23.0-1.131","","554","Stim/Stim-GB/MM_M.PNG","86","","","2","exp","700","2","1","C","b","false"
"fixation-image-keyboard-release-original","1547","639286","0.0-23.0-1.132","","577","Stim/Stim-GB/II_I.PNG","66","","","2","exp","700","1","0","C","v","false"
"fixation-image-keyboard-release-original","1548","641779","0.0-23.0-1.133","","480","Stim/Stim-BG/MM_M.PNG","86","","","2","exp","100","2","1","C","b","false"
"fixation-image-keyboard-release-original","1549","644218","0.0-23.0-1.134","","412","Stim/Stim-GB/II_I.PNG","66","","","2","exp","700","1","0","C","v","false"
"fixation-image-keyboard-release-original","1550","646686","0.0-23.0-1.135","","455","Stim/Stim-BG/NM_I.PNG","66","","","1","exp","700","2","0","IC","v","false"
"fixation-image-keyboard-release-original","1551","649070","0.0-23.0-1.136","","367","Stim/Stim-GB/MN_I.PNG","66","","","1","exp","400","2","0","IC","v","false"
"fixation-image-keyboard-release-original","1552","651428","0.0-23.0-1.137","","332","Stim/Stim-BG/MN_I.PNG","66","","","1","exp","400","2","0","IC","v","false"
"fixation-image-keyboard-release-original","1553","653787","0.0-23.0-1.138","","342","Stim/Stim-BG/MM_I.PNG","66","","","2","exp","700","2","0","IC","v","false"
"fixation-image-keyboard-release-original","1554","656125","0.0-23.0-1.139","","314","Stim/Stim-BG/MM_M.PNG","86","","","2","exp","400","2","1","C","b","false"
"fixation-image-keyboard-release-original","1555","658477","0.0-23.0-1.140","","342","Stim/Stim-BG/MM_I.PNG","66","","","2","exp","400","2","0","IC","v","false"
"fixation-image-keyboard-release-original","1556","661018","0.0-23.0-1.141","","520","Stim/Stim-GB/II_M.PNG","86","","","2","exp","100","1","1","IC","b","false"
"fixation-image-keyboard-release-original","1557","663396","0.0-23.0-1.142","","351","Stim/Stim-GB/MM_I.PNG","66","","","2","exp","100","2","0","IC","v","false"
"fixation-image-keyboard-release-original","1558","665883","0.0-23.0-1.143","","467","Stim/Stim-GB/MM_M.PNG","86","","","2","exp","100","2","1","C","b","false"
"html-keyboard-response","1559","683947","0.0-23.0-2.143-0.143","","17055","Take a break. Feel free to start again by pressing Enter.","13","","","","","","","","","",""
"fixation-image-keyboard-release-original","1714","687902","0.0-23.0-1.144","","555","Stim/Stim-GB/II_M.PNG","86","","","2","exp","700","1","1","IC","b","false"
"fixation-image-keyboard-release-original","1715","690334","0.0-23.0-1.145","","411","Stim/Stim-GB/MM_I.PNG","66","","","2","exp","100","2","0","IC","v","false"
"fixation-image-keyboard-release-original","1716","692787","0.0-23.0-1.146","","438","Stim/Stim-GB/II_M.PNG","86","","","2","exp","100","1","1","IC","b","false"
"fixation-image-keyboard-release-original","1717","695226","0.0-23.0-1.147","","416","Stim/Stim-BG/MN_I.PNG","86","","","1","exp","100","2","0","IC","v","true"
"fixation-image-keyboard-release-original","1718","697631","0.0-23.0-1.148","","379","Stim/Stim-GB/IN_M.PNG","86","","","1","exp","400","1","1","IC","b","false"
"fixation-image-keyboard-release-original","1719","700186","0.0-23.0-1.149","","541","Stim/Stim-GB/NI_M.PNG","86","","","1","exp","400","1","1","IC","b","false"
"fixation-image-keyboard-release-original","1720","702685","0.0-23.0-1.150","","475","Stim/Stim-GB/NM_M.PNG","66","","","1","exp","400","2","1","C","b","true"
"fixation-image-keyboard-release-original","1721","705157","0.0-23.0-1.151","","446","Stim/Stim-BG/II_I.PNG","66","","","2","exp","400","1","0","C","v","false"
"fixation-image-keyboard-release-original","1722","707920","0.0-23.0-1.152","","749","Stim/Stim-BG/IN_M.PNG","86","","","1","exp","700","1","1","IC","b","false"
"fixation-image-keyboard-release-original","1723","710400","0.0-23.0-1.153","","467","Stim/Stim-GB/II_M.PNG","86","","","2","exp","700","1","1","IC","b","false"
"fixation-image-keyboard-release-original","1724","712886","0.0-23.0-1.154","","476","Stim/Stim-BG/IN_I.PNG","66","","","1","exp","400","1","0","C","v","false"
"fixation-image-keyboard-release-original","1725","715298","0.0-23.0-1.155","","384","Stim/Stim-BG/MN_I.PNG","66","","","1","exp","700","2","0","IC","v","false"
"fixation-image-keyboard-release-original","1726","717811","0.0-23.0-1.156","","486","Stim/Stim-GB/MM_M.PNG","86","","","2","exp","400","2","1","C","b","false"
"fixation-image-keyboard-release-original","1727","720311","0.0-23.0-1.157","","482","Stim/Stim-BG/II_I.PNG","66","","","2","exp","100","1","0","C","v","false"
"fixation-image-keyboard-release-original","1728","722898","0.0-23.0-1.158","","576","Stim/Stim-GB/MM_M.PNG","86","","","2","exp","400","2","1","C","b","false"
"fixation-image-keyboard-release-original","1729","725399","0.0-23.0-1.159","","487","Stim/Stim-BG/NM_M.PNG","86","","","1","exp","100","2","1","C","b","false"
"fixation-image-keyboard-release-original","1730","728013","0.0-23.0-1.160","","599","Stim/Stim-BG/II_M.PNG","86","","","2","exp","700","1","1","IC","b","false"
"fixation-image-keyboard-release-original","1731","730614","0.0-23.0-1.161","","582","Stim/Stim-BG/NI_M.PNG","86","","","1","exp","100","1","1","IC","b","false"
"fixation-image-keyboard-release-original","1732","733059","0.0-23.0-1.162","","428","Stim/Stim-GB/II_M.PNG","86","","","2","exp","100","1","1","IC","b","false"
"fixation-image-keyboard-release-original","1733","735547","0.0-23.0-1.163","","472","Stim/Stim-BG/NM_I.PNG","66","","","1","exp","400","2","0","IC","v","false"
"fixation-image-keyboard-release-original","1734","738106","0.0-23.0-1.164","","549","Stim/Stim-BG/MN_I.PNG","66","","","1","exp","100","2","0","IC","v","false"
"fixation-image-keyboard-release-original","1735","740499","0.0-23.0-1.165","","376","Stim/Stim-BG/NI_I.PNG","66","","","1","exp","700","1","0","C","v","false"
"fixation-image-keyboard-release-original","1736","742883","0.0-23.0-1.166","","372","Stim/Stim-BG/IN_M.PNG","86","","","1","exp","400","1","1","IC","b","false"
"fixation-image-keyboard-release-original","1737","745410","0.0-23.0-1.167","","508","Stim/Stim-GB/NM_I.PNG","66","","","1","exp","100","2","0","IC","v","false"
"fixation-image-keyboard-release-original","1738","747896","0.0-23.0-1.168","","472","Stim/Stim-GB/MM_M.PNG","86","","","2","exp","700","2","1","C","b","false"
"fixation-image-keyboard-release-original","1739","750592","0.0-23.0-1.169","","688","Stim/Stim-GB/MN_M.PNG","86","","","1","exp","100","2","1","C","b","false"
"fixation-image-keyboard-release-original","1740","753092","0.0-23.0-1.170","","489","Stim/Stim-BG/NI_I.PNG","66","","","1","exp","100","1","0","C","v","false"
"fixation-image-keyboard-release-original","1741","755679","0.0-23.0-1.171","","581","Stim/Stim-GB/IN_I.PNG","66","","","1","exp","700","1","0","C","v","false"
"fixation-image-keyboard-release-original","1742","758152","0.0-23.0-1.172","","463","Stim/Stim-GB/NM_M.PNG","86","","","1","exp","400","2","1","C","b","false"
"fixation-image-keyboard-release-original","1743","760599","0.0-23.0-1.173","","428","Stim/Stim-GB/MM_M.PNG","86","","","2","exp","100","2","1","C","b","false"
"fixation-image-keyboard-release-original","1744","763085","0.0-23.0-1.174","","460","Stim/Stim-BG/MM_M.PNG","86","","","2","exp","700","2","1","C","b","false"
"fixation-image-keyboard-release-original","1745","765543","0.0-23.0-1.175","","446","Stim/Stim-GB/IN_M.PNG","86","","","1","exp","700","1","1","IC","b","false"
"fixation-image-keyboard-release-original","1746","767935","0.0-23.0-1.176","","371","Stim/Stim-GB/MM_M.PNG","86","","","2","exp","100","2","1","C","b","false"
"fixation-image-keyboard-release-original","1747","770327","0.0-23.0-1.177","","366","Stim/Stim-GB/II_M.PNG","86","","","2","exp","400","1","1","IC","b","false"
"fixation-image-keyboard-release-original","1748","772714","0.0-23.0-1.178","","376","Stim/Stim-BG/II_M.PNG","86","","","2","exp","100","1","1","IC","b","false"
"fixation-image-keyboard-release-original","1749","775186","0.0-23.0-1.179","","459","Stim/Stim-BG/II_I.PNG","66","","","2","exp","700","1","0","C","v","false"
"fixation-image-keyboard-release-original","1750","777585","0.0-23.0-1.180","","384","Stim/Stim-BG/MM_I.PNG","66","","","2","exp","100","2","0","IC","v","false"
"fixation-image-keyboard-release-original","1751","780004","0.0-23.0-1.181","","394","Stim/Stim-BG/IN_I.PNG","66","","","1","exp","100","1","0","C","v","false"
"fixation-image-keyboard-release-original","1752","782424","0.0-23.0-1.182","","409","Stim/Stim-GB/II_I.PNG","66","","","2","exp","400","1","0","C","v","false"
"fixation-image-keyboard-release-original","1753","784998","0.0-23.0-1.183","","562","Stim/Stim-GB/NM_M.PNG","86","","","1","exp","100","2","1","C","b","false"
"fixation-image-keyboard-release-original","1754","787552","0.0-23.0-1.184","","532","Stim/Stim-GB/II_M.PNG","86","","","2","exp","700","1","1","IC","b","false"
"fixation-image-keyboard-release-original","1755","790099","0.0-23.0-1.185","","533","Stim/Stim-GB/NM_M.PNG","86","","","1","exp","700","2","1","C","b","false"
"fixation-image-keyboard-release-original","1756","792599","0.0-23.0-1.186","","490","Stim/Stim-GB/MM_I.PNG","66","","","2","exp","400","2","0","IC","v","false"
"fixation-image-keyboard-release-original","1757","795031","0.0-23.0-1.187","","412","Stim/Stim-GB/MN_I.PNG","66","","","1","exp","100","2","0","IC","v","false"
"fixation-image-keyboard-release-original","1758","797484","0.0-23.0-1.188","","425","Stim/Stim-BG/II_M.PNG","86","","","2","exp","700","1","1","IC","b","false"
"fixation-image-keyboard-release-original","1759","799997","0.0-23.0-1.189","","501","Stim/Stim-GB/IN_I.PNG","66","","","1","exp","100","1","0","C","v","false"
"fixation-image-keyboard-release-original","1760","802699","0.0-23.0-1.190","","680","Stim/Stim-BG/MN_M.PNG","86","","","1","exp","700","2","1","C","b","false"
"fixation-image-keyboard-release-original","1761","805112","0.0-23.0-1.191","","391","Stim/Stim-BG/II_I.PNG","66","","","2","exp","700","1","0","C","v","false"
"call-function","1762","806116","0.0-24.0","","","","","","","","","","","","","",""
"survey-html-form","1763","814849","0.0-25.0","","8731","","","{""hands2"":""Right""}","","","","","","","","",""
"html-keyboard-response","1764","849818","0.0-26.0","","34970","<p><h1>This is the end of the experiment.</h1></p><p>Please <a href='Debrief.pdf' target='_blank'>Click Here</a> (this will open a new window) to read more about the study.</p><p>Press ENTER to end the experiment (you will be sent to Prolific - if something goes wrong, the completion code for this study is: 3F11CBBF).</p>","13","","","","","","","","","",""
"pavlovia","1765","849827","0.0-27.0","","","","","","","","","","","","","",""
