"trial_type","trial_index","time_elapsed","internal_node_id","value","rt","stimulus","key_press","responses","success","hand","test","gap","finger","cue","con","correct_response","correct"
"pavlovia","0","8","0.0-0.0","","","","","","","","","","","","","",""
"call-function","1","9","0.0-1.0","","","","","","","","","","","","","",""
"html-keyboard-response","2","16315","0.0-2.0","","16304.425000002084","<div class = 'my_window'><p><h1>Welcome!</h1><br><p><p>This experiment is adminterested by Carl Michael Galang (McMaster University), Dr. Emiel Cracco (Ghent University), Dr. Marcel Brass (Humboldt University of Berlin), & Dr. Sukhvinder Obhi (McMaster University).</p><p>The purpose of this study is to explore basic perceptual processing mechanisms.</p><p>Information gathered during this study will be written up for publication in an academic journal. While there are no direct benefits to you taking part in this study (other than learning more about the research topic and getting paid on Prolific), the results of this study will provide us with a better understanding of perceptual and sensory processes. To learn about this study, particularly in the terms of any associated risks or harms, how confidentiality and anonymity will be handled, withdrawal procedures, incentives that are promised, how to obtain information about the results, etc., please read the accompanying letter of information - <a href='LOI.pdf' target='_blank'>Click Here</a> (this will open a new window).</p><p>This study should take around 10min to complete.</p><p>If you have questions or need more information about the study itself, please contact me at: galangc@mcmaster.ca. This study has been reviewed by the McMaster University Research Ethics Board and received ethics clearance. If you have concerns or questions about your rights as a participant or about the way the study is conducted, please contact the McMaster Research Ethics Secretariat at ethicsoffice@mcmaster.ca.</p><br><p><h1>CONSENT</h1></p><p>I have read the information presented in the letter of information and I agree to participate in this study.</p><p>By pressing Enter, I consent to the above.<p>","13","","","","","","","","","",""
"survey-html-form","3","21136","0.0-3.0","","4818.419999999605","","","{""1"":""545d0b09fdf99b7f9fca2261""}","","","","","","","","",""
"fullscreen","4","23753","0.0-4.0","","","","","","true","","","","","","","",""
"call-function","5","23754","0.0-5.0","","","","","","","","","","","","","",""
"html-keyboard-response","6","70026","0.0-6.0","","46272.46000000014","<div class = 'my_window'><h1>Instructions</h1><p>Your task in this experiment is to respond to the letters I or M as they appear on the screen. Unlike most experiments, your task will be to <strong><u>release</u></strong> keys (not push).</p><p>Before each trial starts, please ensure that you keep the <strong><u>V key</u></strong> and <strong><u>B key</u></strong> depressed with your <strong><u>right index finger</u></strong> on the <strong><u>V key</u></strong> and your <strong><u>right middle finger</u></strong> on the <strong><u>B key</u></strong> (see image below). Responses on this experiment will consist of lifting your <strong><u>right index finger</u></strong> to release the <strong><u>V key</u></strong> if you see the letter <strong><u>I</u></strong> or lifting your <strong><u>right middle finger</u></strong> to release the <strong><u>B key</u></strong> if you see the letter <strong><u>M</u></strong> as fast as you can. It is important that you <strong><u>only use your right hand</u></strong> to do the task.</p><p><img src='keyboard_img.png'></p><p>While you complete this task, there will be a couple of hands moving in the background. Ignore them and focus on the task.</p><p>Press ENTER to continue.</p></div>","13","","","","","","","","","",""
"html-keyboard-response","7","100922","0.0-7.0","","30893.980000000738","<div class = 'my_window'><h1>Practice</h1><p>You will first do a practice phase. In the practice phase, you will get feedback on your performance. The practice phase contains 10 trials, but will add an extra trial every time you respond incorrectly.</p><p><p>Before each trial starts, please ensure that you keep the <strong><u>V key</u></strong> and <strong><u>B key</u></strong> depressed with your <strong><u>right index finger</u></strong> on the <strong><u>V key</u></strong> and your <strong><u>right middle finger</u></strong> on the <strong><u>B key</u></strong> (see image below). Responses on this experiment will consist of lifting your <strong><u>right index finger</u></strong> to release the <strong><u>V key</u></strong> if you see the letter <strong><u>I</u></strong> or lifting your <strong><u>right middle finger</u></strong> to release the <strong><u>B key</u></strong> if you see the letter <strong><u>M</u></strong> as fast as you can. It is important that you <strong><u>only use your right hand</u></strong> to do the task.</p><p><img src='keyboard_img.png'></p><p>While you complete this task, there will be a couple of hands moving in the background. Ignore them and focus on the task.</p><p>This is a reaction time experiment, so please try to respond as fast as possible while at the same time minimizing mistakes.</p><p>Press ENTER to begin.</p></div>","13","","","","","","","","","",""
"fixation-image-keyboard-release-original","328","105728","0.0-8.0-1.0","","1256.890000000567","Stim/Stim-GB/MM_M.PNG","66","","","2","exp","400","2","1","C","b","true"
"html-keyboard-response","329","106837","0.0-8.0-2.0","","null","<p> CORRECT </p>","null","","","","","","","","","",""
"fixation-image-keyboard-release-original","330","108303","0.0-9.0-1.0","","458.3700000002864","Stim/Stim-BG/NM_M.PNG","66","","","1","exp","400","2","1","C","b","true"
"html-keyboard-response","331","109419","0.0-9.0-2.0","","null","<p> CORRECT </p>","null","","","","","","","","","",""
"fixation-image-keyboard-release-original","332","110833","0.0-10.0-1.0","","409.8699999995006","Stim/Stim-GB/NM_I.PNG","66","","","1","exp","100","2","0","IC","v","false"
"html-keyboard-response","333","111945","0.0-10.0-2.0","","null","<p> INCORRECT </p>","null","","","","","","","","","",""
"fixation-image-keyboard-release-original","334","114344","0.0-10.1-1.1","","1388.0349999999453","Stim/Stim-BG/II_M.PNG","66","","","2","exp","700","1","1","IC","b","true"
"html-keyboard-response","335","115450","0.0-10.1-2.1","","null","<p> CORRECT </p>","null","","","","","","","","","",""
"fixation-image-keyboard-release-original","336","117029","0.0-11.0-1.0","","570.2600000004168","Stim/Stim-GB/II_M.PNG","66","","","2","exp","700","1","1","IC","b","true"
"html-keyboard-response","337","118143","0.0-11.0-2.0","","null","<p> CORRECT </p>","null","","","","","","","","","",""
"fixation-image-keyboard-release-original","338","119636","0.0-12.0-1.0","","485.75999999957276","Stim/Stim-GB/MN_I.PNG","66","","","1","exp","400","2","0","IC","v","false"
"html-keyboard-response","339","120744","0.0-12.0-2.0","","null","<p> INCORRECT </p>","null","","","","","","","","","",""
"fixation-image-keyboard-release-original","340","122167","0.0-12.1-1.1","","404.41500000088126","Stim/Stim-GB/II_M.PNG","66","","","2","exp","700","1","1","IC","b","true"
"html-keyboard-response","341","123280","0.0-12.1-2.1","","null","<p> CORRECT </p>","null","","","","","","","","","",""
"fixation-image-keyboard-release-original","342","124805","0.0-13.0-1.0","","515.240000000631","Stim/Stim-BG/II_M.PNG","66","","","2","exp","700","1","1","IC","b","true"
"html-keyboard-response","343","125909","0.0-13.0-2.0","","null","<p> CORRECT </p>","null","","","","","","","","","",""
"fixation-image-keyboard-release-original","344","127367","0.0-14.0-1.0","","450.10499999989406","Stim/Stim-BG/II_M.PNG","66","","","2","exp","400","1","1","IC","b","true"
"html-keyboard-response","345","128481","0.0-14.0-2.0","","null","<p> CORRECT </p>","null","","","","","","","","","",""
"fixation-image-keyboard-release-original","346","129959","0.0-15.0-1.0","","473.2400000029884","Stim/Stim-BG/IN_M.PNG","66","","","1","exp","700","1","1","IC","b","true"
"html-keyboard-response","347","131067","0.0-15.0-2.0","","null","<p> CORRECT </p>","null","","","","","","","","","",""
"fixation-image-keyboard-release-original","348","132575","0.0-16.0-1.0","","499.7849999999744","Stim/Stim-BG/NM_M.PNG","66","","","1","exp","700","2","1","C","b","true"
"html-keyboard-response","349","133688","0.0-16.0-2.0","","null","<p> CORRECT </p>","null","","","","","","","","","",""
"fixation-image-keyboard-release-original","350","135235","0.0-17.0-1.0","","527.700000002369","Stim/Stim-BG/IN_M.PNG","66","","","1","exp","400","1","1","IC","b","true"
"html-keyboard-response","351","136345","0.0-17.0-2.0","","null","<p> CORRECT </p>","null","","","","","","","","","",""
"call-function","352","136346","0.0-18.0","","","","","","","","","","","","","",""
"survey-html-form","353","140788","0.0-19.0","","4434.789999999339","","","{""hands"":""Right""}","","","","","","","","",""
"html-keyboard-response","354","145974","0.0-20.0","","5184.049999999843","If you are using <strong><u>just</u></strong> your <strong></u>right hand</u></strong>, then good job! If not, please do so in the main part of the experiment.<br><br>Press Enter to continue","13","","","","","","","","","",""
"html-keyboard-response","355","153092","0.0-21.0","","7116.45000000135","<div class = 'my_window'><h1>Main Trials</h1><p>Good Job! We will now begin the main trials. In the main trials, you will <strong>not</strong> get feedback. There are 192 trials overall. You will get a self-paced break every 48 trials.</p><p>Instructions Reminder: <p>Before each trial starts, please ensure that you keep the <strong><u>V key</u></strong> and <strong><u>B key</u></strong> depressed with your <strong><u>right index finger</u></strong> on the <strong><u>V key</u></strong> and your <strong><u>right middle finger</u></strong> on the <strong><u>B key</u></strong> (see image below). Responses on this experiment will consist of lifting your <strong><u>right index finger</u></strong> to release the <strong><u>V key</u></strong> if you see the letter <strong><u>I</u></strong> or lifting your <strong><u>right middle finger</u></strong> to release the <strong><u>B key</u></strong> if you see the letter <strong><u>M</u></strong> as fast as you can. It is important that you <strong><u>only use your right hand</u></strong> to do the task.</p><p><img src='keyboard_img.png'></p><p>While you complete this task, there will be a couple of hands moving in the background. Ignore them and focus on the task.</p><p>Remember: this is a reaction time experiment, so please try to respond as fast as possible while at the same time minimizing mistakes.</p><p>Press ENTER to begin.</p></div>","13","","","","","","","","","",""
"call-function","356","153092","0.0-22.0","","","","","","","","","","","","","",""
"fixation-image-keyboard-release-original","585","156299","0.0-23.0-1.0","","392.4150000020745","Stim/Stim-BG/II_M.PNG","66","","","2","exp","100","1","1","IC","b","true"
"fixation-image-keyboard-release-original","586","158694","0.0-23.0-1.1","","378.06500000078813","Stim/Stim-GB/IN_I.PNG","86","","","1","exp","400","1","0","C","v","true"
"fixation-image-keyboard-release-original","587","161158","0.0-23.0-1.2","","446.6500000016822","Stim/Stim-BG/II_M.PNG","66","","","2","exp","700","1","1","IC","b","true"
"fixation-image-keyboard-release-original","588","163523","0.0-23.0-1.3","","356.10000000087894","Stim/Stim-GB/MN_M.PNG","66","","","1","exp","700","2","1","C","b","true"
"fixation-image-keyboard-release-original","589","165916","0.0-23.0-1.4","","371.7050000013842","Stim/Stim-BG/II_I.PNG","86","","","2","exp","700","1","0","C","v","true"
"fixation-image-keyboard-release-original","590","168539","0.0-23.0-1.5","","610.5200000019977","Stim/Stim-BG/MN_M.PNG","66","","","1","exp","100","2","1","C","b","true"
"fixation-image-keyboard-release-original","591","170991","0.0-23.0-1.6","","435.41999999797554","Stim/Stim-GB/MM_M.PNG","66","","","2","exp","700","2","1","C","b","true"
"fixation-image-keyboard-release-original","592","173595","0.0-23.0-1.7","","584.2799999991257","Stim/Stim-GB/II_I.PNG","86","","","2","exp","700","1","0","C","v","true"
"fixation-image-keyboard-release-original","593","176224","0.0-23.0-1.8","","618.0650000023888","Stim/Stim-GB/MN_I.PNG","86","","","1","exp","100","2","0","IC","v","true"
"fixation-image-keyboard-release-original","594","178858","0.0-23.0-1.9","","608.0199999996694","Stim/Stim-GB/II_M.PNG","66","","","2","exp","100","1","1","IC","b","true"
"fixation-image-keyboard-release-original","595","181338","0.0-23.0-1.10","","466.2949999983539","Stim/Stim-GB/IN_I.PNG","86","","","1","exp","700","1","0","C","v","true"
"fixation-image-keyboard-release-original","596","183753","0.0-23.0-1.11","","390.5000000013388","Stim/Stim-GB/MM_M.PNG","66","","","2","exp","700","2","1","C","b","true"
"fixation-image-keyboard-release-original","597","186205","0.0-23.0-1.12","","433.69999999777065","Stim/Stim-BG/NM_M.PNG","66","","","1","exp","400","2","1","C","b","true"
"fixation-image-keyboard-release-original","598","188732","0.0-23.0-1.13","","508.6650000012014","Stim/Stim-BG/MN_M.PNG","66","","","1","exp","700","2","1","C","b","true"
"fixation-image-keyboard-release-original","599","198251","0.0-23.0-1.14","","7509.815000001254","Stim/Stim-GB/MM_I.PNG","86","","","2","exp","100","2","0","IC","v","true"
"fixation-image-keyboard-release-original","600","200801","0.0-23.0-1.15","","536.9549999995797","Stim/Stim-GB/MM_M.PNG","66","","","2","exp","100","2","1","C","b","true"
"fixation-image-keyboard-release-original","601","203248","0.0-23.0-1.16","","424.3749999986903","Stim/Stim-BG/IN_I.PNG","86","","","1","exp","100","1","0","C","v","true"
"fixation-image-keyboard-release-original","602","205817","0.0-23.0-1.17","","555.3650000001653","Stim/Stim-GB/MN_I.PNG","86","","","1","exp","400","2","0","IC","v","true"
"fixation-image-keyboard-release-original","603","208339","0.0-23.0-1.18","","510.19499999893014","Stim/Stim-BG/II_M.PNG","66","","","2","exp","400","1","1","IC","b","true"
"fixation-image-keyboard-release-original","604","210878","0.0-23.0-1.19","","519.6649999998044","Stim/Stim-GB/MM_M.PNG","66","","","2","exp","400","2","1","C","b","true"
"fixation-image-keyboard-release-original","605","213450","0.0-23.0-1.20","","560.5450000002747","Stim/Stim-GB/MN_M.PNG","66","","","1","exp","100","2","1","C","b","true"
"fixation-image-keyboard-release-original","606","216033","0.0-23.0-1.21","","570.2000000019325","Stim/Stim-GB/II_M.PNG","66","","","2","exp","700","1","1","IC","b","true"
"fixation-image-keyboard-release-original","607","218441","0.0-23.0-1.22","","389.0749999991385","Stim/Stim-GB/NM_I.PNG","86","","","1","exp","400","2","0","IC","v","true"
"fixation-image-keyboard-release-original","608","221136","0.0-23.0-1.23","","681.7200000004959","Stim/Stim-BG/II_I.PNG","86","","","2","exp","700","1","0","C","v","true"
"fixation-image-keyboard-release-original","609","223707","0.0-23.0-1.24","","555.3800000016054","Stim/Stim-GB/IN_I.PNG","86","","","1","exp","100","1","0","C","v","true"
"fixation-image-keyboard-release-original","610","226252","0.0-23.0-1.25","","538.3700000020326","Stim/Stim-GB/MN_I.PNG","86","","","1","exp","700","2","0","IC","v","true"
"fixation-image-keyboard-release-original","611","228775","0.0-23.0-1.26","","508.5849999995844","Stim/Stim-GB/NI_I.PNG","86","","","1","exp","400","1","0","C","v","true"
"fixation-image-keyboard-release-original","612","231289","0.0-23.0-1.27","","499.9400000015157","Stim/Stim-GB/MN_I.PNG","86","","","1","exp","100","2","0","IC","v","true"
"fixation-image-keyboard-release-original","613","233960","0.0-23.0-1.28","","658.9050000002317","Stim/Stim-GB/MM_I.PNG","86","","","2","exp","100","2","0","IC","v","true"
"fixation-image-keyboard-release-original","614","236670","0.0-23.0-1.29","","696.0899999976391","Stim/Stim-BG/IN_M.PNG","66","","","1","exp","700","1","1","IC","b","true"
"fixation-image-keyboard-release-original","615","239173","0.0-23.0-1.30","","491.69000000256347","Stim/Stim-BG/NI_I.PNG","86","","","1","exp","700","1","0","C","v","true"
"fixation-image-keyboard-release-original","616","241811","0.0-23.0-1.31","","624.9050000005809","Stim/Stim-GB/NI_I.PNG","86","","","1","exp","700","1","0","C","v","true"
"fixation-image-keyboard-release-original","617","244563","0.0-23.0-1.32","","733.0450000008568","Stim/Stim-GB/NI_M.PNG","66","","","1","exp","400","1","1","IC","b","true"
"fixation-image-keyboard-release-original","618","247265","0.0-23.0-1.33","","681.3250000013795","Stim/Stim-BG/MM_M.PNG","66","","","2","exp","400","2","1","C","b","true"
"fixation-image-keyboard-release-original","619","249750","0.0-23.0-1.34","","467.6849999996484","Stim/Stim-GB/II_M.PNG","66","","","2","exp","100","1","1","IC","b","true"
"fixation-image-keyboard-release-original","620","252442","0.0-23.0-1.35","","687.0200000011828","Stim/Stim-GB/MM_I.PNG","86","","","2","exp","700","2","0","IC","v","true"
"fixation-image-keyboard-release-original","621","255133","0.0-23.0-1.36","","676.8899999987916","Stim/Stim-BG/NI_M.PNG","66","","","1","exp","100","1","1","IC","b","true"
"fixation-image-keyboard-release-original","622","257703","0.0-23.0-1.37","","554.7700000024633","Stim/Stim-BG/MM_M.PNG","66","","","2","exp","100","2","1","C","b","true"
"fixation-image-keyboard-release-original","623","260411","0.0-23.0-1.38","","697.2100000020582","Stim/Stim-GB/MM_M.PNG","66","","","2","exp","400","2","1","C","b","true"
"fixation-image-keyboard-release-original","624","263250","0.0-23.0-1.39","","830.2849999999744","Stim/Stim-GB/NI_I.PNG","86","","","1","exp","700","1","0","C","v","true"
"fixation-image-keyboard-release-original","625","266044","0.0-23.0-1.40","","774.9949999997625","Stim/Stim-GB/II_I.PNG","86","","","2","exp","400","1","0","C","v","true"
"fixation-image-keyboard-release-original","626","268472","0.0-23.0-1.41","","408.980000000156","Stim/Stim-BG/NM_M.PNG","66","","","1","exp","100","2","1","C","b","true"
"fixation-image-keyboard-release-original","627","271022","0.0-23.0-1.42","","536.2649999987916","Stim/Stim-BG/MM_M.PNG","66","","","2","exp","100","2","1","C","b","true"
"fixation-image-keyboard-release-original","628","273591","0.0-23.0-1.43","","548.4749999996275","Stim/Stim-GB/II_I.PNG","86","","","2","exp","700","1","0","C","v","true"
"fixation-image-keyboard-release-original","629","276276","0.0-23.0-1.44","","672.2349999981234","Stim/Stim-BG/IN_M.PNG","66","","","1","exp","400","1","1","IC","b","true"
"fixation-image-keyboard-release-original","630","279026","0.0-23.0-1.45","","735.179999999702","Stim/Stim-BG/MN_I.PNG","86","","","1","exp","700","2","0","IC","v","true"
"fixation-image-keyboard-release-original","631","281493","0.0-23.0-1.46","","443.0750000028638","Stim/Stim-BG/MM_M.PNG","66","","","2","exp","700","2","1","C","b","true"
"fixation-image-keyboard-release-original","632","284022","0.0-23.0-1.47","","517.7000000003027","Stim/Stim-GB/II_M.PNG","66","","","2","exp","100","1","1","IC","b","true"
"html-keyboard-response","633","332241","0.0-23.0-2.47-0.47","","47221.96999999869","Take a break. Feel free to start again by pressing Enter.","13","","","","","","","","","",""
"fixation-image-keyboard-release-original","809","335088","0.0-23.0-1.48","","432.6049999981187","Stim/Stim-BG/IN_I.PNG","86","","","1","exp","400","1","0","C","v","true"
"fixation-image-keyboard-release-original","810","337542","0.0-23.0-1.49","","438.18000000104075","Stim/Stim-BG/II_I.PNG","86","","","2","exp","100","1","0","C","v","true"
"fixation-image-keyboard-release-original","811","340064","0.0-23.0-1.50","","516.6649999992223","Stim/Stim-GB/MM_M.PNG","66","","","2","exp","100","2","1","C","b","true"
"fixation-image-keyboard-release-original","812","342500","0.0-23.0-1.51","","419.86499999987427","Stim/Stim-GB/MM_I.PNG","86","","","2","exp","700","2","0","IC","v","true"
"fixation-image-keyboard-release-original","813","344986","0.0-23.0-1.52","","471.89499999873806","Stim/Stim-GB/MN_I.PNG","86","","","1","exp","400","2","0","IC","v","true"
"fixation-image-keyboard-release-original","814","347499","0.0-23.0-1.53","","501.234999999695","Stim/Stim-BG/II_I.PNG","86","","","2","exp","400","1","0","C","v","true"
"fixation-image-keyboard-release-original","815","349796","0.0-23.0-1.54","","288.8500000007916","Stim/Stim-GB/MN_M.PNG","66","","","1","exp","400","2","1","C","b","true"
"fixation-image-keyboard-release-original","816","352281","0.0-23.0-1.55","","478.0900000005495","Stim/Stim-GB/IN_M.PNG","66","","","1","exp","100","1","1","IC","b","true"
"fixation-image-keyboard-release-original","817","354817","0.0-23.0-1.56","","523.9250000013271","Stim/Stim-GB/II_M.PNG","66","","","2","exp","400","1","1","IC","b","true"
"fixation-image-keyboard-release-original","818","357255","0.0-23.0-1.57","","421.20499999873573","Stim/Stim-BG/MM_M.PNG","66","","","2","exp","400","2","1","C","b","true"
"fixation-image-keyboard-release-original","819","359743","0.0-23.0-1.58","","476.7250000004424","Stim/Stim-BG/MM_I.PNG","86","","","2","exp","400","2","0","IC","v","true"
"fixation-image-keyboard-release-original","820","362234","0.0-23.0-1.59","","478.0949999985751","Stim/Stim-GB/II_I.PNG","86","","","2","exp","100","1","0","C","v","true"
"fixation-image-keyboard-release-original","821","364714","0.0-23.0-1.60","","472.7400000010384","Stim/Stim-BG/II_I.PNG","86","","","2","exp","100","1","0","C","v","true"
"fixation-image-keyboard-release-original","822","367208","0.0-23.0-1.61","","483.91500000067754","Stim/Stim-GB/MM_M.PNG","66","","","2","exp","700","2","1","C","b","true"
"fixation-image-keyboard-release-original","823","369746","0.0-23.0-1.62","","524.0599999997648","Stim/Stim-GB/II_I.PNG","86","","","2","exp","100","1","0","C","v","true"
"fixation-image-keyboard-release-original","824","372188","0.0-23.0-1.63","","436.72000000148546","Stim/Stim-BG/MN_I.PNG","86","","","1","exp","700","2","0","IC","v","true"
"fixation-image-keyboard-release-original","825","374734","0.0-23.0-1.64","","536.8100000013947","Stim/Stim-BG/II_I.PNG","86","","","2","exp","100","1","0","C","v","true"
"fixation-image-keyboard-release-original","826","377198","0.0-23.0-1.65","","445.9400000014575","Stim/Stim-GB/IN_M.PNG","66","","","1","exp","400","1","1","IC","b","true"
"fixation-image-keyboard-release-original","827","379949","0.0-23.0-1.66","","721.5199999991455","Stim/Stim-GB/II_M.PNG","66","","","2","exp","100","1","1","IC","b","true"
"fixation-image-keyboard-release-original","828","382388","0.0-23.0-1.67","","424.7849999992177","Stim/Stim-BG/IN_M.PNG","66","","","1","exp","400","1","1","IC","b","true"
"fixation-image-keyboard-release-original","829","384810","0.0-23.0-1.68","","398.5499999980675","Stim/Stim-GB/NM_M.PNG","66","","","1","exp","400","2","1","C","b","true"
"fixation-image-keyboard-release-original","830","387296","0.0-23.0-1.69","","472.9750000005588","Stim/Stim-GB/MN_M.PNG","66","","","1","exp","400","2","1","C","b","true"
"fixation-image-keyboard-release-original","831","392971","0.0-23.0-1.70","","3656.4400000025053","Stim/Stim-GB/IN_M.PNG","66","","","1","exp","100","1","1","IC","b","true"
"fixation-image-keyboard-release-original","832","395970","0.0-23.0-1.71","","980.6700000008568","Stim/Stim-BG/II_M.PNG","66","","","2","exp","400","1","1","IC","b","true"
"fixation-image-keyboard-release-original","833","398697","0.0-23.0-1.72","","717.2099999988568","Stim/Stim-BG/MM_M.PNG","66","","","2","exp","400","2","1","C","b","true"
"fixation-image-keyboard-release-original","891","402046","0.0-23.0-1.73","","888.3649999988265","Stim/Stim-BG/NI_I.PNG","86","","","1","exp","400","1","0","C","v","true"
"fixation-image-keyboard-release-original","892","404633","0.0-23.0-1.74","","570.7750000001397","Stim/Stim-BG/MN_I.PNG","86","","","1","exp","100","2","0","IC","v","true"
"fixation-image-keyboard-release-original","893","407066","0.0-23.0-1.75","","407.8250000020489","Stim/Stim-GB/NI_M.PNG","66","","","1","exp","700","1","1","IC","b","true"
"fixation-image-keyboard-release-original","894","409547","0.0-23.0-1.76","","471.3450000017765","Stim/Stim-BG/MM_M.PNG","66","","","2","exp","400","2","1","C","b","true"
"fixation-image-keyboard-release-original","895","412009","0.0-23.0-1.77","","438.27999999851454","Stim/Stim-BG/NM_I.PNG","86","","","1","exp","700","2","0","IC","v","true"
"fixation-image-keyboard-release-original","896","415159","0.0-23.0-1.78","","1130.9849999998114","Stim/Stim-GB/NM_M.PNG","66","","","1","exp","400","2","1","C","b","true"
"fixation-image-keyboard-release-original","897","417836","0.0-23.0-1.79","","646.3100000001141","Stim/Stim-BG/IN_I.PNG","86","","","1","exp","700","1","0","C","v","true"
"fixation-image-keyboard-release-original","898","420389","0.0-23.0-1.80","","539.0799999986775","Stim/Stim-GB/MM_I.PNG","86","","","2","exp","400","2","0","IC","v","true"
"fixation-image-keyboard-release-original","899","422905","0.0-23.0-1.81","","498.08499999926426","Stim/Stim-GB/NI_M.PNG","66","","","1","exp","100","1","1","IC","b","true"
"fixation-image-keyboard-release-original","900","425591","0.0-23.0-1.82","","667.2249999974156","Stim/Stim-GB/II_M.PNG","66","","","2","exp","400","1","1","IC","b","true"
"fixation-image-keyboard-release-original","901","428560","0.0-23.0-1.83","","958.3699999966775","Stim/Stim-BG/IN_I.PNG","86","","","1","exp","400","1","0","C","v","true"
"fixation-image-keyboard-release-original","902","435976","0.0-23.0-1.84","","5399.40999999817","Stim/Stim-GB/NM_M.PNG","66","","","1","exp","700","2","1","C","b","true"
"fixation-image-keyboard-release-original","903","438584","0.0-23.0-1.85","","585.5799999990268","Stim/Stim-BG/NI_I.PNG","86","","","1","exp","700","1","0","C","v","true"
"fixation-image-keyboard-release-original","904","441052","0.0-23.0-1.86","","455.7300000014948","Stim/Stim-BG/MM_I.PNG","86","","","2","exp","700","2","0","IC","v","true"
"fixation-image-keyboard-release-original","905","443512","0.0-23.0-1.87","","444.95499999902677","Stim/Stim-GB/II_I.PNG","86","","","2","exp","400","1","0","C","v","true"
"fixation-image-keyboard-release-original","906","445889","0.0-23.0-1.88","","356.72499999782303","Stim/Stim-GB/IN_M.PNG","66","","","1","exp","700","1","1","IC","b","true"
"fixation-image-keyboard-release-original","907","449657","0.0-23.0-1.89","","1756.22999999905","Stim/Stim-GB/IN_I.PNG","66","","","1","exp","400","1","0","C","v","false"
"fixation-image-keyboard-release-original","908","452965","0.0-23.0-1.90","","1292.815000000759","Stim/Stim-BG/MM_M.PNG","66","","","2","exp","100","2","1","C","b","true"
"fixation-image-keyboard-release-original","909","455473","0.0-23.0-1.91","","496.68000000022585","Stim/Stim-BG/MM_I.PNG","86","","","2","exp","400","2","0","IC","v","true"
"fixation-image-keyboard-release-original","910","458080","0.0-23.0-1.92","","597.3899999990244","Stim/Stim-GB/II_I.PNG","86","","","2","exp","100","1","0","C","v","true"
"fixation-image-keyboard-release-original","911","460443","0.0-23.0-1.93","","345.84499999985565","Stim/Stim-GB/NM_M.PNG","66","","","1","exp","700","2","1","C","b","true"
"fixation-image-keyboard-release-original","912","462992","0.0-23.0-1.94","","525.7500000006985","Stim/Stim-GB/MM_M.PNG","66","","","2","exp","400","2","1","C","b","true"
"fixation-image-keyboard-release-original","913","465454","0.0-23.0-1.95","","453.14499999955297","Stim/Stim-BG/II_M.PNG","66","","","2","exp","100","1","1","IC","b","true"
"html-keyboard-response","914","528877","0.0-23.0-2.95-0.95","","62412.51999999804","Take a break. Feel free to start again by pressing Enter.","13","","","","","","","","","",""
"fixation-image-keyboard-release-original","1047","531503","0.0-23.0-1.96","","562.7249999997439","Stim/Stim-BG/NM_M.PNG","66","","","1","exp","700","2","1","C","b","true"
"fixation-image-keyboard-release-original","1048","533888","0.0-23.0-1.97","","377.3700000019744","Stim/Stim-BG/MM_I.PNG","86","","","2","exp","400","2","0","IC","v","true"
"fixation-image-keyboard-release-original","1049","536297","0.0-23.0-1.98","","388.58999999868684","Stim/Stim-GB/MN_M.PNG","86","","","1","exp","700","2","1","C","b","false"
"fixation-image-keyboard-release-original","1050","538713","0.0-23.0-1.99","","399.49999999953434","Stim/Stim-BG/MM_I.PNG","86","","","2","exp","100","2","0","IC","v","true"
"fixation-image-keyboard-release-original","1051","541066","0.0-23.0-1.100","","343.4450000022771","Stim/Stim-BG/II_M.PNG","66","","","2","exp","400","1","1","IC","b","true"
"fixation-image-keyboard-release-original","1052","543479","0.0-23.0-1.101","","400.2750000000233","Stim/Stim-BG/NI_M.PNG","66","","","1","exp","700","1","1","IC","b","true"
"fixation-image-keyboard-release-original","1053","545987","0.0-23.0-1.102","","493.0400000012014","Stim/Stim-BG/MM_M.PNG","66","","","2","exp","100","2","1","C","b","true"
"fixation-image-keyboard-release-original","1054","548430","0.0-23.0-1.103","","430.544999999227","Stim/Stim-BG/II_M.PNG","66","","","2","exp","100","1","1","IC","b","true"
"fixation-image-keyboard-release-original","1055","551003","0.0-23.0-1.104","","547.689999999362","Stim/Stim-BG/NI_I.PNG","86","","","1","exp","100","1","0","C","v","true"
"fixation-image-keyboard-release-original","1056","553528","0.0-23.0-1.105","","504.3049999985378","Stim/Stim-BG/NM_I.PNG","86","","","1","exp","400","2","0","IC","v","true"
"fixation-image-keyboard-release-original","1057","556129","0.0-23.0-1.106","","580.4800000005635","Stim/Stim-GB/NM_M.PNG","66","","","1","exp","100","2","1","C","b","true"
"fixation-image-keyboard-release-original","1058","558745","0.0-23.0-1.107","","600.9750000011409","Stim/Stim-BG/NM_I.PNG","86","","","1","exp","700","2","0","IC","v","true"
"fixation-image-keyboard-release-original","1059","561144","0.0-23.0-1.108","","374.6199999987148","Stim/Stim-GB/II_M.PNG","66","","","2","exp","700","1","1","IC","b","true"
"fixation-image-keyboard-release-original","1060","563537","0.0-23.0-1.109","","374.45999999914784","Stim/Stim-GB/MM_M.PNG","66","","","2","exp","100","2","1","C","b","true"
"fixation-image-keyboard-release-original","1061","565957","0.0-23.0-1.110","","392.8299999970477","Stim/Stim-GB/NI_M.PNG","66","","","1","exp","100","1","1","IC","b","true"
"fixation-image-keyboard-release-original","1062","568652","0.0-23.0-1.111","","678.6700000012061","Stim/Stim-GB/II_I.PNG","86","","","2","exp","100","1","0","C","v","true"
"fixation-image-keyboard-release-original","1063","571378","0.0-23.0-1.112","","716.4400000000605","Stim/Stim-BG/NM_M.PNG","66","","","1","exp","700","2","1","C","b","true"
"fixation-image-keyboard-release-original","1064","573829","0.0-23.0-1.113","","442.3449999995064","Stim/Stim-BG/MM_I.PNG","86","","","2","exp","100","2","0","IC","v","true"
"fixation-image-keyboard-release-original","1065","576373","0.0-23.0-1.114","","537.0199999997858","Stim/Stim-BG/MM_I.PNG","86","","","2","exp","700","2","0","IC","v","true"
"fixation-image-keyboard-release-original","1066","579248","0.0-23.0-1.115","","851.3800000000047","Stim/Stim-BG/II_M.PNG","66","","","2","exp","400","1","1","IC","b","true"
"fixation-image-keyboard-release-original","1067","581863","0.0-23.0-1.116","","603.975000001723","Stim/Stim-BG/MM_I.PNG","86","","","2","exp","100","2","0","IC","v","true"
"fixation-image-keyboard-release-original","1068","584430","0.0-23.0-1.117","","549.8250000019325","Stim/Stim-BG/NM_I.PNG","86","","","1","exp","400","2","0","IC","v","true"
"fixation-image-keyboard-release-original","1069","586808","0.0-23.0-1.118","","369.3249999997206","Stim/Stim-BG/II_M.PNG","66","","","2","exp","100","1","1","IC","b","true"
"fixation-image-keyboard-release-original","1070","589308","0.0-23.0-1.119","","494.1450000006007","Stim/Stim-BG/NI_M.PNG","66","","","1","exp","700","1","1","IC","b","true"
"fixation-image-keyboard-release-original","1071","591884","0.0-23.0-1.120","","551.8099999971455","Stim/Stim-BG/MN_M.PNG","66","","","1","exp","700","2","1","C","b","true"
"fixation-image-keyboard-release-original","1072","594629","0.0-23.0-1.121","","728.1150000017369","Stim/Stim-BG/IN_I.PNG","86","","","1","exp","100","1","0","C","v","true"
"fixation-image-keyboard-release-original","1073","597062","0.0-23.0-1.122","","403.3400000006659","Stim/Stim-GB/MM_M.PNG","66","","","2","exp","700","2","1","C","b","true"
"fixation-image-keyboard-release-original","1074","600916","0.0-23.0-1.123","","1842.735000001965","Stim/Stim-BG/IN_M.PNG","66","","","1","exp","100","1","1","IC","b","true"
"fixation-image-keyboard-release-original","1075","603423","0.0-23.0-1.124","","477.56999999913387","Stim/Stim-GB/NM_I.PNG","86","","","1","exp","100","2","0","IC","v","true"
"fixation-image-keyboard-release-original","1076","605765","0.0-23.0-1.125","","322.3199999993667","Stim/Stim-BG/NM_M.PNG","66","","","1","exp","100","2","1","C","b","true"
"fixation-image-keyboard-release-original","1077","609052","0.0-23.0-1.126","","1273.5150000007125","Stim/Stim-BG/MN_I.PNG","86","","","1","exp","400","2","0","IC","v","true"
"fixation-image-keyboard-release-original","1078","611538","0.0-23.0-1.127","","480.08000000112224","Stim/Stim-BG/II_I.PNG","86","","","2","exp","400","1","0","C","v","true"
"fixation-image-keyboard-release-original","1079","613980","0.0-23.0-1.128","","429.8799999996554","Stim/Stim-GB/MM_I.PNG","86","","","2","exp","700","2","0","IC","v","true"
"fixation-image-keyboard-release-original","1080","616666","0.0-23.0-1.129","","664.2350000002189","Stim/Stim-BG/NM_I.PNG","86","","","1","exp","100","2","0","IC","v","true"
"fixation-image-keyboard-release-original","1081","619189","0.0-23.0-1.130","","510.6549999981653","Stim/Stim-BG/NI_M.PNG","86","","","1","exp","100","1","1","IC","b","false"
"fixation-image-keyboard-release-original","1082","621860","0.0-23.0-1.131","","662.9699999976438","Stim/Stim-BG/IN_M.PNG","66","","","1","exp","100","1","1","IC","b","true"
"fixation-image-keyboard-release-original","1083","624560","0.0-23.0-1.132","","681.0299999996787","Stim/Stim-BG/NM_I.PNG","86","","","1","exp","100","2","0","IC","v","true"
"fixation-image-keyboard-release-original","1084","629621","0.0-23.0-1.133","","3046.744999999646","Stim/Stim-BG/MM_I.PNG","66","","","2","exp","700","2","0","IC","v","false"
"fixation-image-keyboard-release-original","1085","633670","0.0-23.0-1.134","","2037.8049999999348","Stim/Stim-BG/MM_I.PNG","86","","","2","exp","400","2","0","IC","v","true"
"fixation-image-keyboard-release-original","1086","638199","0.0-23.0-1.135","","2506.84000000183","Stim/Stim-GB/II_I.PNG","86","","","2","exp","400","1","0","C","v","true"
"fixation-image-keyboard-release-original","1087","643889","0.0-23.0-1.136","","3682.7049999992596","Stim/Stim-GB/NI_I.PNG","86","","","1","exp","100","1","0","C","v","true"
"fixation-image-keyboard-release-original","1088","646363","0.0-23.0-1.137","","462.2850000014296","Stim/Stim-BG/MM_M.PNG","66","","","2","exp","700","2","1","C","b","true"
"fixation-image-keyboard-release-original","1089","648866","0.0-23.0-1.138","","495.7049999976298","Stim/Stim-BG/II_I.PNG","86","","","2","exp","400","1","0","C","v","true"
"fixation-image-keyboard-release-original","1090","651420","0.0-23.0-1.139","","542.5199999990873","Stim/Stim-GB/IN_I.PNG","86","","","1","exp","700","1","0","C","v","true"
"fixation-image-keyboard-release-original","1091","653967","0.0-23.0-1.140","","533.5550000017975","Stim/Stim-BG/MM_M.PNG","66","","","2","exp","700","2","1","C","b","true"
"fixation-image-keyboard-release-original","1092","656541","0.0-23.0-1.141","","569.8400000000838","Stim/Stim-GB/MM_I.PNG","86","","","2","exp","400","2","0","IC","v","true"
"fixation-image-keyboard-release-original","1093","659695","0.0-23.0-1.142","","1138.7099999992643","Stim/Stim-GB/IN_I.PNG","86","","","1","exp","100","1","0","C","v","true"
"fixation-image-keyboard-release-original","1094","663012","0.0-23.0-1.143","","1312.2399999992922","Stim/Stim-BG/MM_I.PNG","86","","","2","exp","700","2","0","IC","v","true"
"html-keyboard-response","1095","976459","0.0-23.0-2.143-0.143","","312433.2049999975","Take a break. Feel free to start again by pressing Enter.","13","","","","","","","","","",""
"fixation-image-keyboard-release-original","1351","980028","0.0-23.0-1.144","","532.7849999993341","Stim/Stim-BG/MM_I.PNG","86","","","2","exp","100","2","0","IC","v","true"
"fixation-image-keyboard-release-original","1352","982654","0.0-23.0-1.145","","606.6050000009127","Stim/Stim-BG/II_I.PNG","86","","","2","exp","100","1","0","C","v","true"
"fixation-image-keyboard-release-original","1353","985174","0.0-23.0-1.146","","503.7499999998836","Stim/Stim-GB/II_I.PNG","86","","","2","exp","700","1","0","C","v","true"
"fixation-image-keyboard-release-original","1354","987737","0.0-23.0-1.147","","539.3850000000093","Stim/Stim-BG/NI_I.PNG","86","","","1","exp","400","1","0","C","v","true"
"fixation-image-keyboard-release-original","1355","990194","0.0-23.0-1.148","","442.67000000039116","Stim/Stim-GB/NM_I.PNG","86","","","1","exp","700","2","0","IC","v","true"
"fixation-image-keyboard-release-original","1356","992685","0.0-23.0-1.149","","466.9849999990547","Stim/Stim-BG/NI_M.PNG","66","","","1","exp","400","1","1","IC","b","true"
"fixation-image-keyboard-release-original","1357","995193","0.0-23.0-1.150","","493.3200000014622","Stim/Stim-GB/MM_I.PNG","86","","","2","exp","100","2","0","IC","v","true"
"fixation-image-keyboard-release-original","1358","997706","0.0-23.0-1.151","","487.42999999737367","Stim/Stim-GB/MM_I.PNG","86","","","2","exp","400","2","0","IC","v","true"
"fixation-image-keyboard-release-original","1359","1000161","0.0-23.0-1.152","","432.77500000118744","Stim/Stim-BG/NI_I.PNG","86","","","1","exp","100","1","0","C","v","true"
"fixation-image-keyboard-release-original","1360","1002645","0.0-23.0-1.153","","467.26000000117347","Stim/Stim-GB/MM_I.PNG","86","","","2","exp","700","2","0","IC","v","true"
"fixation-image-keyboard-release-original","1361","1005324","0.0-23.0-1.154","","659.6449999996694","Stim/Stim-GB/NI_M.PNG","66","","","1","exp","400","1","1","IC","b","true"
"fixation-image-keyboard-release-original","1362","1007972","0.0-23.0-1.155","","634.9349999981932","Stim/Stim-BG/NI_M.PNG","66","","","1","exp","400","1","1","IC","b","true"
"fixation-image-keyboard-release-original","1363","1010556","0.0-23.0-1.156","","565.8599999988219","Stim/Stim-GB/NM_I.PNG","86","","","1","exp","700","2","0","IC","v","true"
"fixation-image-keyboard-release-original","1364","1013132","0.0-23.0-1.157","","550.934999999241","Stim/Stim-BG/MN_I.PNG","86","","","1","exp","400","2","0","IC","v","true"
"fixation-image-keyboard-release-original","1365","1015553","0.0-23.0-1.158","","398.61499999812804","Stim/Stim-GB/MM_I.PNG","86","","","2","exp","400","2","0","IC","v","true"
"fixation-image-keyboard-release-original","1366","1018754","0.0-23.0-1.159","","1184.0949999968288","Stim/Stim-GB/II_M.PNG","66","","","2","exp","700","1","1","IC","b","true"
"fixation-image-keyboard-release-original","1367","1021236","0.0-23.0-1.160","","466.1149999992922","Stim/Stim-BG/MN_M.PNG","66","","","1","exp","400","2","1","C","b","true"
"fixation-image-keyboard-release-original","1368","1023832","0.0-23.0-1.161","","584.8299999997253","Stim/Stim-GB/II_I.PNG","86","","","2","exp","400","1","0","C","v","true"
"fixation-image-keyboard-release-original","1369","1026392","0.0-23.0-1.162","","552.8199999971548","Stim/Stim-BG/MN_I.PNG","86","","","1","exp","100","2","0","IC","v","true"
"fixation-image-keyboard-release-original","1370","1028905","0.0-23.0-1.163","","497.0150000008289","Stim/Stim-GB/NM_I.PNG","86","","","1","exp","100","2","0","IC","v","true"
"fixation-image-keyboard-release-original","1371","1031389","0.0-23.0-1.164","","464.5999999992782","Stim/Stim-BG/II_I.PNG","86","","","2","exp","700","1","0","C","v","true"
"fixation-image-keyboard-release-original","1372","1034096","0.0-23.0-1.165","","690.2949999966659","Stim/Stim-GB/MM_M.PNG","66","","","2","exp","400","2","1","C","b","true"
"fixation-image-keyboard-release-original","1373","1036624","0.0-23.0-1.166","","515.7350000008009","Stim/Stim-BG/MN_M.PNG","66","","","1","exp","100","2","1","C","b","true"
"fixation-image-keyboard-release-original","1374","1039221","0.0-23.0-1.167","","582.1649999998044","Stim/Stim-GB/IN_M.PNG","66","","","1","exp","700","1","1","IC","b","true"
"fixation-image-keyboard-release-original","1375","1041807","0.0-23.0-1.168","","567.3999999999069","Stim/Stim-BG/II_M.PNG","66","","","2","exp","700","1","1","IC","b","true"
"fixation-image-keyboard-release-original","1376","1044541","0.0-23.0-1.169","","717.6650000002701","Stim/Stim-GB/NI_I.PNG","86","","","1","exp","100","1","0","C","v","true"
"fixation-image-keyboard-release-original","1377","1046955","0.0-23.0-1.170","","392.98499999847263","Stim/Stim-GB/NI_M.PNG","66","","","1","exp","700","1","1","IC","b","true"
"fixation-image-keyboard-release-original","1378","1049581","0.0-23.0-1.171","","616.1250000004657","Stim/Stim-GB/II_M.PNG","66","","","2","exp","400","1","1","IC","b","true"
"fixation-image-keyboard-release-original","1379","1052069","0.0-23.0-1.172","","461.4699999985751","Stim/Stim-GB/MN_M.PNG","66","","","1","exp","100","2","1","C","b","true"
"fixation-image-keyboard-release-original","1380","1055065","0.0-23.0-1.173","","971.8249999969266","Stim/Stim-BG/MM_M.PNG","66","","","2","exp","700","2","1","C","b","true"
"fixation-image-keyboard-release-original","1381","1057785","0.0-23.0-1.174","","714.9699999971781","Stim/Stim-GB/MM_M.PNG","66","","","2","exp","100","2","1","C","b","true"
"fixation-image-keyboard-release-original","1382","1060364","0.0-23.0-1.175","","552.9199999980628","Stim/Stim-BG/II_M.PNG","66","","","2","exp","700","1","1","IC","b","true"
"fixation-image-keyboard-release-original","1383","1062896","0.0-23.0-1.176","","519.7750000006054","Stim/Stim-BG/II_I.PNG","86","","","2","exp","700","1","0","C","v","true"
"fixation-image-keyboard-release-original","1384","1065568","0.0-23.0-1.177","","664.1300000010524","Stim/Stim-BG/II_M.PNG","66","","","2","exp","700","1","1","IC","b","true"
"fixation-image-keyboard-release-original","1385","1068121","0.0-23.0-1.178","","539.4799999995157","Stim/Stim-GB/IN_M.PNG","66","","","1","exp","400","1","1","IC","b","true"
"fixation-image-keyboard-release-original","1386","1070585","0.0-23.0-1.179","","458.0549999990035","Stim/Stim-GB/NI_I.PNG","86","","","1","exp","400","1","0","C","v","true"
"fixation-image-keyboard-release-original","1387","1073021","0.0-23.0-1.180","","427.2350000028964","Stim/Stim-BG/IN_I.PNG","86","","","1","exp","700","1","0","C","v","true"
"fixation-image-keyboard-release-original","1388","1075476","0.0-23.0-1.181","","436.9850000003353","Stim/Stim-BG/IN_M.PNG","66","","","1","exp","700","1","1","IC","b","true"
"fixation-image-keyboard-release-original","1389","1077981","0.0-23.0-1.182","","498.21500000334345","Stim/Stim-GB/II_I.PNG","86","","","2","exp","700","1","0","C","v","true"
"fixation-image-keyboard-release-original","1390","1080541","0.0-23.0-1.183","","536.635000000475","Stim/Stim-GB/NM_I.PNG","86","","","1","exp","400","2","0","IC","v","true"
"fixation-image-keyboard-release-original","1391","1082889","0.0-23.0-1.184","","337.9899999999907","Stim/Stim-BG/NM_M.PNG","66","","","1","exp","400","2","1","C","b","true"
"fixation-image-keyboard-release-original","1392","1085335","0.0-23.0-1.185","","435.93499999749474","Stim/Stim-GB/MN_I.PNG","86","","","1","exp","700","2","0","IC","v","true"
"fixation-image-keyboard-release-original","1393","1087728","0.0-23.0-1.186","","375.30499999783933","Stim/Stim-GB/II_M.PNG","66","","","2","exp","400","1","1","IC","b","true"
"fixation-image-keyboard-release-original","1394","1090205","0.0-23.0-1.187","","454.80999999912456","Stim/Stim-GB/NM_M.PNG","66","","","1","exp","100","2","1","C","b","true"
"fixation-image-keyboard-release-original","1395","1092730","0.0-23.0-1.188","","505.12499999976717","Stim/Stim-BG/MN_M.PNG","66","","","1","exp","400","2","1","C","b","true"
"fixation-image-keyboard-release-original","1396","1095390","0.0-23.0-1.189","","643.1599999994505","Stim/Stim-GB/II_M.PNG","66","","","2","exp","700","1","1","IC","b","true"
"fixation-image-keyboard-release-original","1397","1097908","0.0-23.0-1.190","","512.4350000005215","Stim/Stim-GB/MM_I.PNG","86","","","2","exp","100","2","0","IC","v","true"
"fixation-image-keyboard-release-original","1398","1100382","0.0-23.0-1.191","","457.6200000010431","Stim/Stim-BG/II_I.PNG","86","","","2","exp","400","1","0","C","v","true"
"call-function","1399","1101390","0.0-24.0","","","","","","","","","","","","","",""
"survey-html-form","1400","1105244","0.0-25.0","","3847.669999999227","","","{""hands2"":""Right""}","","","","","","","","",""
"html-keyboard-response","1401","1118693","0.0-26.0","","13447.585000001593","<p><h1>This is the end of the experiment.</h1></p><p>Please <a href='Debrief.pdf' target='_blank'>Click Here</a> (this will open a new window) to read more about the study.</p><p>Press ENTER to end the experiment (you will be sent to Prolific - if something goes wrong, the completion code for this study is: 3F11CBBF).</p>","13","","","","","","","","","",""
"pavlovia","1402","1118711","0.0-27.0","","","","","","","","","","","","","",""
