"trial_type","trial_index","time_elapsed","internal_node_id","value","rt","stimulus","key_press","responses","success","hand","test","gap","finger","cue","con","correct_response","correct"
"pavlovia","0","6","0.0-0.0","","","","","","","","","","","","","",""
"call-function","1","6","0.0-1.0","","","","","","","","","","","","","",""
"html-keyboard-response","2","53191","0.0-2.0","","53184.16499999966","<div class = 'my_window'><p><h1>Welcome!</h1><br><p><p>This experiment is adminterested by Carl Michael Galang (McMaster University), Dr. Emiel Cracco (Ghent University), Dr. Marcel Brass (Humboldt University of Berlin), & Dr. Sukhvinder Obhi (McMaster University).</p><p>The purpose of this study is to explore basic perceptual processing mechanisms.</p><p>Information gathered during this study will be written up for publication in an academic journal. While there are no direct benefits to you taking part in this study (other than learning more about the research topic and getting paid on Prolific), the results of this study will provide us with a better understanding of perceptual and sensory processes. To learn about this study, particularly in the terms of any associated risks or harms, how confidentiality and anonymity will be handled, withdrawal procedures, incentives that are promised, how to obtain information about the results, etc., please read the accompanying letter of information - <a href='LOI.pdf' target='_blank'>Click Here</a> (this will open a new window).</p><p>This study should take around 10min to complete.</p><p>If you have questions or need more information about the study itself, please contact me at: galangc@mcmaster.ca. This study has been reviewed by the McMaster University Research Ethics Board and received ethics clearance. If you have concerns or questions about your rights as a participant or about the way the study is conducted, please contact the McMaster Research Ethics Secretariat at ethicsoffice@mcmaster.ca.</p><br><p><h1>CONSENT</h1></p><p>I have read the information presented in the letter of information and I agree to participate in this study.</p><p>By pressing Enter, I consent to the above.<p>","13","","","","","","","","","",""
"survey-html-form","3","62176","0.0-3.0","","8984.345000000292","","","{""1"":""5f51055494f9472bcd4c900a""}","","","","","","","","",""
"fullscreen","4","66201","0.0-4.0","","","","","","true","","","","","","","",""
"call-function","5","66202","0.0-5.0","","","","","","","","","","","","","",""
"html-keyboard-response","6","132806","0.0-6.0","","66601.4500000001","<div class = 'my_window'><h1>Instructions</h1><p>Your task in this experiment is to respond to the letters I or M as they appear on the screen. Unlike most experiments, your task will be to <strong><u>release</u></strong> keys (not push).</p><p>Before each trial starts, please ensure that you keep the <strong><u>V key</u></strong> and <strong><u>B key</u></strong> depressed with your <strong><u>right index finger</u></strong> on the <strong><u>V key</u></strong> and your <strong><u>right middle finger</u></strong> on the <strong><u>B key</u></strong> (see image below). Responses on this experiment will consist of lifting your <strong><u>right index finger</u></strong> to release the <strong><u>V key</u></strong> if you see the letter <strong><u>I</u></strong> or lifting your <strong><u>right middle finger</u></strong> to release the <strong><u>B key</u></strong> if you see the letter <strong><u>M</u></strong> as fast as you can. It is important that you <strong><u>only use your right hand</u></strong> to do the task.</p><p><img src='keyboard_img.png'></p><p>While you complete this task, there will be a couple of hands moving in the background. Ignore them and focus on the task.</p><p>Press ENTER to continue.</p></div>","13","","","","","","","","","",""
"html-keyboard-response","7","162177","0.0-7.0","","29370.124999999913","<div class = 'my_window'><h1>Practice</h1><p>You will first do a practice phase. In the practice phase, you will get feedback on your performance. The practice phase contains 10 trials, but will add an extra trial every time you respond incorrectly.</p><p><p>Before each trial starts, please ensure that you keep the <strong><u>V key</u></strong> and <strong><u>B key</u></strong> depressed with your <strong><u>right index finger</u></strong> on the <strong><u>V key</u></strong> and your <strong><u>right middle finger</u></strong> on the <strong><u>B key</u></strong> (see image below). Responses on this experiment will consist of lifting your <strong><u>right index finger</u></strong> to release the <strong><u>V key</u></strong> if you see the letter <strong><u>I</u></strong> or lifting your <strong><u>right middle finger</u></strong> to release the <strong><u>B key</u></strong> if you see the letter <strong><u>M</u></strong> as fast as you can. It is important that you <strong><u>only use your right hand</u></strong> to do the task.</p><p><img src='keyboard_img.png'></p><p>While you complete this task, there will be a couple of hands moving in the background. Ignore them and focus on the task.</p><p>This is a reaction time experiment, so please try to respond as fast as possible while at the same time minimizing mistakes.</p><p>Press ENTER to begin.</p></div>","13","","","","","","","","","",""
"fixation-image-keyboard-release-original","738","167773","0.0-8.0-1.0","","905.7299999999232","Stim/Stim-GB/II_I.PNG","86","","","2","exp","700","1","0","C","v","true"
"html-keyboard-response","739","168875","0.0-8.0-2.0","","null","<p> CORRECT </p>","null","","","","","","","","","",""
"fixation-image-keyboard-release-original","914","171292","0.0-9.0-1.0","","521.3750000002619","Stim/Stim-BG/IN_M.PNG","86","","","1","exp","400","1","1","IC","b","false"
"html-keyboard-response","915","172392","0.0-9.0-2.0","","null","<p> INCORRECT </p>","null","","","","","","","","","",""
"fixation-image-keyboard-release-original","963","174032","0.0-9.1-1.1","","406.08500000007916","Stim/Stim-GB/NM_M.PNG","66","","","1","exp","100","2","1","C","b","true"
"html-keyboard-response","964","175133","0.0-9.1-2.1","","null","<p> CORRECT </p>","null","","","","","","","","","",""
"fixation-image-keyboard-release-original","1047","176956","0.0-10.0-1.0","","413.8849999999511","Stim/Stim-GB/NM_M.PNG","66","","","1","exp","100","2","1","C","b","true"
"html-keyboard-response","1048","178058","0.0-10.0-2.0","","null","<p> CORRECT </p>","null","","","","","","","","","",""
"fixation-image-keyboard-release-original","1049","179511","0.0-11.0-1.0","","451.6400000002177","Stim/Stim-GB/NM_I.PNG","66","","","1","exp","400","2","0","IC","v","false"
"html-keyboard-response","1050","180612","0.0-11.0-2.0","","null","<p> INCORRECT </p>","null","","","","","","","","","",""
"fixation-image-keyboard-release-original","1051","182240","0.0-11.1-1.1","","626.4700000001467","Stim/Stim-BG/MN_M.PNG","86","","","1","exp","700","2","1","C","b","false"
"html-keyboard-response","1052","183341","0.0-11.1-2.1","","null","<p> INCORRECT </p>","null","","","","","","","","","",""
"fixation-image-keyboard-release-original","1053","185122","0.0-11.2-1.2","","779.2850000000617","Stim/Stim-BG/MM_I.PNG","86","","","2","exp","400","2","0","IC","v","true"
"html-keyboard-response","1054","186223","0.0-11.2-2.2","","null","<p> CORRECT </p>","null","","","","","","","","","",""
"fixation-image-keyboard-release-original","1055","187798","0.0-12.0-1.0","","574.0599999999104","Stim/Stim-BG/II_M.PNG","66","","","2","exp","400","1","1","IC","b","true"
"html-keyboard-response","1056","188900","0.0-12.0-2.0","","null","<p> CORRECT </p>","null","","","","","","","","","",""
"fixation-image-keyboard-release-original","1057","190285","0.0-13.0-1.0","","383.69000000011874","Stim/Stim-GB/NI_M.PNG","66","","","1","exp","100","1","1","IC","b","true"
"html-keyboard-response","1058","191387","0.0-13.0-2.0","","null","<p> CORRECT </p>","null","","","","","","","","","",""
"fixation-image-keyboard-release-original","1059","192851","0.0-14.0-1.0","","462.5350000001199","Stim/Stim-GB/II_I.PNG","86","","","2","exp","400","1","0","C","v","true"
"html-keyboard-response","1060","193952","0.0-14.0-2.0","","null","<p> CORRECT </p>","null","","","","","","","","","",""
"fixation-image-keyboard-release-original","1061","195490","0.0-15.0-1.0","","536.3499999998603","Stim/Stim-GB/NM_I.PNG","86","","","1","exp","700","2","0","IC","v","true"
"html-keyboard-response","1062","196591","0.0-15.0-2.0","","null","<p> CORRECT </p>","null","","","","","","","","","",""
"fixation-image-keyboard-release-original","1063","198023","0.0-16.0-1.0","","430.15500000002794","Stim/Stim-BG/II_I.PNG","86","","","2","exp","400","1","0","C","v","true"
"html-keyboard-response","1064","199124","0.0-16.0-2.0","","null","<p> CORRECT </p>","null","","","","","","","","","",""
"fixation-image-keyboard-release-original","1065","200826","0.0-17.0-1.0","","699.9649999997928","Stim/Stim-GB/II_I.PNG","86","","","2","exp","400","1","0","C","v","true"
"html-keyboard-response","1066","201927","0.0-17.0-2.0","","null","<p> CORRECT </p>","null","","","","","","","","","",""
"call-function","1067","201927","0.0-18.0","","","","","","","","","","","","","",""
"survey-html-form","1068","207876","0.0-19.0","","5946.349999999715","","","{""hands"":""Right""}","","","","","","","","",""
"html-keyboard-response","1069","214163","0.0-20.0","","6286.445000000182","If you are using <strong><u>just</u></strong> your <strong></u>right hand</u></strong>, then good job! If not, please do so in the main part of the experiment.<br><br>Press Enter to continue","13","","","","","","","","","",""
"html-keyboard-response","1070","244328","0.0-21.0","","30163.59999999986","<div class = 'my_window'><h1>Main Trials</h1><p>Good Job! We will now begin the main trials. In the main trials, you will <strong>not</strong> get feedback. There are 192 trials overall. You will get a self-paced break every 48 trials.</p><p>Instructions Reminder: <p>Before each trial starts, please ensure that you keep the <strong><u>V key</u></strong> and <strong><u>B key</u></strong> depressed with your <strong><u>right index finger</u></strong> on the <strong><u>V key</u></strong> and your <strong><u>right middle finger</u></strong> on the <strong><u>B key</u></strong> (see image below). Responses on this experiment will consist of lifting your <strong><u>right index finger</u></strong> to release the <strong><u>V key</u></strong> if you see the letter <strong><u>I</u></strong> or lifting your <strong><u>right middle finger</u></strong> to release the <strong><u>B key</u></strong> if you see the letter <strong><u>M</u></strong> as fast as you can. It is important that you <strong><u>only use your right hand</u></strong> to do the task.</p><p><img src='keyboard_img.png'></p><p>While you complete this task, there will be a couple of hands moving in the background. Ignore them and focus on the task.</p><p>Remember: this is a reaction time experiment, so please try to respond as fast as possible while at the same time minimizing mistakes.</p><p>Press ENTER to begin.</p></div>","13","","","","","","","","","",""
"call-function","1071","244328","0.0-22.0","","","","","","","","","","","","","",""
"fixation-image-keyboard-release-original","1547","248297","0.0-23.0-1.0","","572.9599999999627","Stim/Stim-GB/NM_I.PNG","86","","","1","exp","100","2","0","IC","v","true"
"fixation-image-keyboard-release-original","1548","250733","0.0-23.0-1.1","","432.6700000001001","Stim/Stim-GB/IN_M.PNG","66","","","1","exp","100","1","1","IC","b","true"
"fixation-image-keyboard-release-original","1549","253220","0.0-23.0-1.2","","483.5050000001211","Stim/Stim-BG/IN_M.PNG","66","","","1","exp","700","1","1","IC","b","true"
"fixation-image-keyboard-release-original","1550","255658","0.0-23.0-1.3","","436.2450000003446","Stim/Stim-GB/II_I.PNG","86","","","2","exp","100","1","0","C","v","true"
"fixation-image-keyboard-release-original","1551","258119","0.0-23.0-1.4","","458.2500000001746","Stim/Stim-BG/MM_I.PNG","86","","","2","exp","100","2","0","IC","v","true"
"fixation-image-keyboard-release-original","1552","260589","0.0-23.0-1.5","","467.9999999998254","Stim/Stim-GB/MN_M.PNG","66","","","1","exp","400","2","1","C","b","true"
"fixation-image-keyboard-release-original","1553","262998","0.0-23.0-1.6","","405.7750000001979","Stim/Stim-GB/II_I.PNG","86","","","2","exp","400","1","0","C","v","true"
"fixation-image-keyboard-release-original","1554","265532","0.0-23.0-1.7","","531.7049999998417","Stim/Stim-BG/MM_M.PNG","66","","","2","exp","700","2","1","C","b","true"
"fixation-image-keyboard-release-original","1555","267955","0.0-23.0-1.8","","421.4649999999092","Stim/Stim-BG/II_I.PNG","86","","","2","exp","100","1","0","C","v","true"
"fixation-image-keyboard-release-original","1556","270318","0.0-23.0-1.9","","359.22500000015134","Stim/Stim-GB/MM_M.PNG","66","","","2","exp","400","2","1","C","b","true"
"fixation-image-keyboard-release-original","1557","272711","0.0-23.0-1.10","","391.1450000000186","Stim/Stim-GB/II_M.PNG","66","","","2","exp","400","1","1","IC","b","true"
"fixation-image-keyboard-release-original","1558","275249","0.0-23.0-1.11","","536.0100000002421","Stim/Stim-GB/II_I.PNG","86","","","2","exp","700","1","0","C","v","true"
"fixation-image-keyboard-release-original","1559","277836","0.0-23.0-1.12","","583.645000000135","Stim/Stim-BG/MM_I.PNG","86","","","2","exp","700","2","0","IC","v","true"
"fixation-image-keyboard-release-original","1560","280224","0.0-23.0-1.13","","386.3900000000722","Stim/Stim-BG/NI_M.PNG","66","","","1","exp","100","1","1","IC","b","true"
"fixation-image-keyboard-release-original","1561","282691","0.0-23.0-1.14","","464.18000000040047","Stim/Stim-GB/MM_I.PNG","86","","","2","exp","700","2","0","IC","v","true"
"fixation-image-keyboard-release-original","1562","285235","0.0-23.0-1.15","","539.9849999999278","Stim/Stim-BG/II_M.PNG","66","","","2","exp","100","1","1","IC","b","true"
"fixation-image-keyboard-release-original","1563","287615","0.0-23.0-1.16","","377.70000000001164","Stim/Stim-BG/IN_I.PNG","86","","","1","exp","100","1","0","C","v","true"
"fixation-image-keyboard-release-original","1564","290189","0.0-23.0-1.17","","572.5449999999837","Stim/Stim-BG/MN_M.PNG","66","","","1","exp","100","2","1","C","b","true"
"fixation-image-keyboard-release-original","1565","292826","0.0-23.0-1.18","","634.2999999996973","Stim/Stim-BG/NM_I.PNG","86","","","1","exp","100","2","0","IC","v","true"
"fixation-image-keyboard-release-original","1566","295301","0.0-23.0-1.19","","472.19499999983236","Stim/Stim-BG/MM_I.PNG","86","","","2","exp","400","2","0","IC","v","true"
"fixation-image-keyboard-release-original","1567","297652","0.0-23.0-1.20","","349.00500000000466","Stim/Stim-BG/II_I.PNG","86","","","2","exp","400","1","0","C","v","true"
"fixation-image-keyboard-release-original","1568","300038","0.0-23.0-1.21","","381.6799999999348","Stim/Stim-BG/NI_M.PNG","66","","","1","exp","700","1","1","IC","b","true"
"fixation-image-keyboard-release-original","1569","302537","0.0-23.0-1.22","","497.8499999997439","Stim/Stim-GB/MN_M.PNG","66","","","1","exp","100","2","1","C","b","true"
"fixation-image-keyboard-release-original","1570","304919","0.0-23.0-1.23","","381.11999999999534","Stim/Stim-BG/MM_M.PNG","66","","","2","exp","700","2","1","C","b","true"
"fixation-image-keyboard-release-original","1571","307322","0.0-23.0-1.24","","399.08500000002095","Stim/Stim-BG/NM_M.PNG","66","","","1","exp","700","2","1","C","b","true"
"fixation-image-keyboard-release-original","1572","309835","0.0-23.0-1.25","","510.11999999993714","Stim/Stim-GB/NI_I.PNG","86","","","1","exp","400","1","0","C","v","true"
"fixation-image-keyboard-release-original","1573","312346","0.0-23.0-1.26","","507.77000000019325","Stim/Stim-GB/NI_M.PNG","66","","","1","exp","400","1","1","IC","b","true"
"fixation-image-keyboard-release-original","1574","314779","0.0-23.0-1.27","","430.5899999999092","Stim/Stim-BG/II_M.PNG","66","","","2","exp","400","1","1","IC","b","true"
"fixation-image-keyboard-release-original","1575","317333","0.0-23.0-1.28","","551.3550000000396","Stim/Stim-GB/NM_I.PNG","86","","","1","exp","700","2","0","IC","v","true"
"fixation-image-keyboard-release-original","1576","319829","0.0-23.0-1.29","","494.11000000010245","Stim/Stim-BG/NI_I.PNG","86","","","1","exp","100","1","0","C","v","true"
"fixation-image-keyboard-release-original","1577","322302","0.0-23.0-1.30","","469.94499999983236","Stim/Stim-GB/NI_I.PNG","86","","","1","exp","700","1","0","C","v","true"
"fixation-image-keyboard-release-original","1578","324723","0.0-23.0-1.31","","418.64500000019325","Stim/Stim-GB/II_I.PNG","86","","","2","exp","100","1","0","C","v","true"
"fixation-image-keyboard-release-original","1579","327167","0.0-23.0-1.32","","441.53000000008615","Stim/Stim-GB/MN_M.PNG","66","","","1","exp","700","2","1","C","b","true"
"fixation-image-keyboard-release-original","1580","329572","0.0-23.0-1.33","","403.2200000001467","Stim/Stim-GB/NI_M.PNG","66","","","1","exp","700","1","1","IC","b","true"
"fixation-image-keyboard-release-original","1581","332209","0.0-23.0-1.34","","634.1649999999208","Stim/Stim-BG/MM_M.PNG","66","","","2","exp","400","2","1","C","b","true"
"fixation-image-keyboard-release-original","1582","334725","0.0-23.0-1.35","","513.9400000002934","Stim/Stim-BG/NI_I.PNG","86","","","1","exp","400","1","0","C","v","true"
"fixation-image-keyboard-release-original","1583","337221","0.0-23.0-1.36","","493.679999999993","Stim/Stim-GB/NI_I.PNG","86","","","1","exp","100","1","0","C","v","true"
"fixation-image-keyboard-release-original","1584","339639","0.0-23.0-1.37","","415.37000000016997","Stim/Stim-GB/NI_I.PNG","86","","","1","exp","700","1","0","C","v","true"
"fixation-image-keyboard-release-original","1585","342048","0.0-23.0-1.38","","407.37500000023283","Stim/Stim-BG/NM_I.PNG","86","","","1","exp","100","2","0","IC","v","true"
"fixation-image-keyboard-release-original","1586","344478","0.0-23.0-1.39","","426.4100000000326","Stim/Stim-GB/II_I.PNG","86","","","2","exp","100","1","0","C","v","true"
"fixation-image-keyboard-release-original","1587","346925","0.0-23.0-1.40","","444.97000000003027","Stim/Stim-BG/MN_M.PNG","66","","","1","exp","400","2","1","C","b","true"
"fixation-image-keyboard-release-original","1588","349403","0.0-23.0-1.41","","475.8900000001886","Stim/Stim-GB/NM_M.PNG","66","","","1","exp","400","2","1","C","b","true"
"fixation-image-keyboard-release-original","1589","351767","0.0-23.0-1.42","","361.79500000027474","Stim/Stim-BG/II_M.PNG","66","","","2","exp","400","1","1","IC","b","true"
"fixation-image-keyboard-release-original","1590","354240","0.0-23.0-1.43","","470.4550000001327","Stim/Stim-BG/NM_I.PNG","86","","","1","exp","700","2","0","IC","v","true"
"fixation-image-keyboard-release-original","1591","356692","0.0-23.0-1.44","","450.2349999997532","Stim/Stim-GB/II_I.PNG","86","","","2","exp","400","1","0","C","v","true"
"fixation-image-keyboard-release-original","1592","359152","0.0-23.0-1.45","","456.090000000142","Stim/Stim-GB/IN_I.PNG","86","","","1","exp","700","1","0","C","v","true"
"fixation-image-keyboard-release-original","1593","361508","0.0-23.0-1.46","","353.8499999999767","Stim/Stim-BG/II_I.PNG","86","","","2","exp","700","1","0","C","v","true"
"fixation-image-keyboard-release-original","1594","363882","0.0-23.0-1.47","","371.8100000000559","Stim/Stim-GB/NI_M.PNG","66","","","1","exp","700","1","1","IC","b","true"
"html-keyboard-response","1595","376757","0.0-23.0-2.47-0.47","","11874.090000000258","Take a break. Feel free to start again by pressing Enter.","13","","","","","","","","","",""
"fixation-image-keyboard-release-original","1790","379218","0.0-23.0-1.48","","494.39500000019325","Stim/Stim-GB/MM_M.PNG","66","","","2","exp","100","2","1","C","b","true"
"fixation-image-keyboard-release-original","1791","381699","0.0-23.0-1.49","","479.25000000029104","Stim/Stim-GB/II_M.PNG","66","","","2","exp","700","1","1","IC","b","true"
"fixation-image-keyboard-release-original","1792","384115","0.0-23.0-1.50","","413.0700000000652","Stim/Stim-GB/II_M.PNG","66","","","2","exp","400","1","1","IC","b","true"
"fixation-image-keyboard-release-original","1793","386500","0.0-23.0-1.51","","382.765000000305","Stim/Stim-GB/MM_M.PNG","66","","","2","exp","400","2","1","C","b","true"
"fixation-image-keyboard-release-original","1794","388994","0.0-23.0-1.52","","492.644999999844","Stim/Stim-GB/MM_I.PNG","86","","","2","exp","100","2","0","IC","v","true"
"fixation-image-keyboard-release-original","1795","391558","0.0-23.0-1.53","","561.4399999999441","Stim/Stim-BG/IN_M.PNG","66","","","1","exp","100","1","1","IC","b","true"
"fixation-image-keyboard-release-original","1796","393943","0.0-23.0-1.54","","383.91499999986263","Stim/Stim-GB/MM_M.PNG","66","","","2","exp","100","2","1","C","b","true"
"fixation-image-keyboard-release-original","1797","396573","0.0-23.0-1.55","","628.0349999996834","Stim/Stim-BG/MM_I.PNG","86","","","2","exp","700","2","0","IC","v","true"
"fixation-image-keyboard-release-original","1798","398962","0.0-23.0-1.56","","385.9000000001979","Stim/Stim-GB/IN_I.PNG","86","","","1","exp","100","1","0","C","v","true"
"fixation-image-keyboard-release-original","1799","401406","0.0-23.0-1.57","","442.605000000156","Stim/Stim-BG/II_M.PNG","66","","","2","exp","700","1","1","IC","b","true"
"fixation-image-keyboard-release-original","1800","403780","0.0-23.0-1.58","","371.45000000006985","Stim/Stim-GB/IN_I.PNG","86","","","1","exp","400","1","0","C","v","true"
"fixation-image-keyboard-release-original","1801","406192","0.0-23.0-1.59","","410.78999999986263","Stim/Stim-GB/IN_I.PNG","86","","","1","exp","400","1","0","C","v","true"
"fixation-image-keyboard-release-original","1802","408572","0.0-23.0-1.60","","377.6699999998673","Stim/Stim-BG/MM_M.PNG","66","","","2","exp","700","2","1","C","b","true"
"fixation-image-keyboard-release-original","1803","410938","0.0-23.0-1.61","","362.789999999688","Stim/Stim-GB/NI_M.PNG","66","","","1","exp","400","1","1","IC","b","true"
"fixation-image-keyboard-release-original","1804","413426","0.0-23.0-1.62","","486.58500000013737","Stim/Stim-BG/II_I.PNG","86","","","2","exp","700","1","0","C","v","true"
"fixation-image-keyboard-release-original","1805","415858","0.0-23.0-1.63","","430.3749999998836","Stim/Stim-GB/NM_M.PNG","66","","","1","exp","700","2","1","C","b","true"
"fixation-image-keyboard-release-original","1806","418230","0.0-23.0-1.64","","369.1149999999907","Stim/Stim-BG/NM_M.PNG","66","","","1","exp","400","2","1","C","b","true"
"fixation-image-keyboard-release-original","1807","420738","0.0-23.0-1.65","","506.9800000000978","Stim/Stim-GB/MN_I.PNG","86","","","1","exp","400","2","0","IC","v","true"
"fixation-image-keyboard-release-original","1808","423170","0.0-23.0-1.66","","429.6699999999837","Stim/Stim-BG/MM_I.PNG","86","","","2","exp","100","2","0","IC","v","true"
"fixation-image-keyboard-release-original","1809","425559","0.0-23.0-1.67","","386.5449999998091","Stim/Stim-BG/II_I.PNG","86","","","2","exp","100","1","0","C","v","true"
"fixation-image-keyboard-release-original","1810","428099","0.0-23.0-1.68","","538.414999999979","Stim/Stim-GB/NM_I.PNG","86","","","1","exp","400","2","0","IC","v","true"
"fixation-image-keyboard-release-original","1811","430578","0.0-23.0-1.69","","477.1299999997136","Stim/Stim-BG/IN_M.PNG","66","","","1","exp","400","1","1","IC","b","true"
"fixation-image-keyboard-release-original","1812","433398","0.0-23.0-1.70","","816.9800000000396","Stim/Stim-GB/II_M.PNG","66","","","2","exp","100","1","1","IC","b","true"
"fixation-image-keyboard-release-original","1813","435873","0.0-23.0-1.71","","473.62999999994645","Stim/Stim-GB/IN_M.PNG","66","","","1","exp","400","1","1","IC","b","true"
"fixation-image-keyboard-release-original","1814","438195","0.0-23.0-1.72","","320.4400000000023","Stim/Stim-GB/MM_M.PNG","66","","","2","exp","400","2","1","C","b","true"
"fixation-image-keyboard-release-original","1815","440632","0.0-23.0-1.73","","434.20999999990454","Stim/Stim-BG/IN_I.PNG","86","","","1","exp","400","1","0","C","v","true"
"fixation-image-keyboard-release-original","1816","443054","0.0-23.0-1.74","","418.6850000001141","Stim/Stim-GB/MN_I.PNG","86","","","1","exp","400","2","0","IC","v","true"
"fixation-image-keyboard-release-original","1817","445510","0.0-23.0-1.75","","453.86000000004424","Stim/Stim-BG/II_M.PNG","66","","","2","exp","100","1","1","IC","b","true"
"fixation-image-keyboard-release-original","1818","447965","0.0-23.0-1.76","","451.61500000039814","Stim/Stim-GB/MM_M.PNG","66","","","2","exp","700","2","1","C","b","true"
"fixation-image-keyboard-release-original","1819","450878","0.0-23.0-1.77","","911.5950000000303","Stim/Stim-GB/MM_I.PNG","86","","","2","exp","100","2","0","IC","v","true"
"fixation-image-keyboard-release-original","1820","453304","0.0-23.0-1.78","","424.1549999996787","Stim/Stim-BG/MM_M.PNG","66","","","2","exp","700","2","1","C","b","true"
"fixation-image-keyboard-release-original","1821","455705","0.0-23.0-1.79","","397.97000000003027","Stim/Stim-BG/NM_M.PNG","66","","","1","exp","100","2","1","C","b","true"
"fixation-image-keyboard-release-original","1822","458068","0.0-23.0-1.80","","360.74499999999534","Stim/Stim-GB/NI_M.PNG","66","","","1","exp","100","1","1","IC","b","true"
"fixation-image-keyboard-release-original","1823","460503","0.0-23.0-1.81","","432.52000000030966","Stim/Stim-BG/NI_I.PNG","86","","","1","exp","700","1","0","C","v","true"
"fixation-image-keyboard-release-original","1824","462930","0.0-23.0-1.82","","424.34499999985565","Stim/Stim-GB/NM_M.PNG","66","","","1","exp","100","2","1","C","b","true"
"fixation-image-keyboard-release-original","1825","465536","0.0-23.0-1.83","","604.2449999999953","Stim/Stim-BG/II_M.PNG","66","","","2","exp","700","1","1","IC","b","true"
"fixation-image-keyboard-release-original","1826","468029","0.0-23.0-1.84","","489.96500000020023","Stim/Stim-BG/II_I.PNG","86","","","2","exp","700","1","0","C","v","true"
"fixation-image-keyboard-release-original","1827","470442","0.0-23.0-1.85","","409.7050000000163","Stim/Stim-BG/MM_I.PNG","86","","","2","exp","400","2","0","IC","v","true"
"fixation-image-keyboard-release-original","1828","472807","0.0-23.0-1.86","","362.5150000002468","Stim/Stim-BG/IN_I.PNG","86","","","1","exp","100","1","0","C","v","true"
"fixation-image-keyboard-release-original","1829","475172","0.0-23.0-1.87","","363.2849999999162","Stim/Stim-GB/MM_M.PNG","66","","","2","exp","100","2","1","C","b","true"
"fixation-image-keyboard-release-original","1830","477512","0.0-23.0-1.88","","337.1400000001304","Stim/Stim-BG/MN_I.PNG","86","","","1","exp","100","2","0","IC","v","true"
"fixation-image-keyboard-release-original","1831","479906","0.0-23.0-1.89","","391.9250000003958","Stim/Stim-BG/II_I.PNG","86","","","2","exp","400","1","0","C","v","true"
"fixation-image-keyboard-release-original","1832","482290","0.0-23.0-1.90","","380.7950000000419","Stim/Stim-GB/MN_I.PNG","86","","","1","exp","100","2","0","IC","v","true"
"fixation-image-keyboard-release-original","1833","484611","0.0-23.0-1.91","","317.6149999999325","Stim/Stim-BG/MN_I.PNG","86","","","1","exp","400","2","0","IC","v","true"
"fixation-image-keyboard-release-original","1834","486950","0.0-23.0-1.92","","337.42999999958556","Stim/Stim-BG/MM_M.PNG","66","","","2","exp","100","2","1","C","b","true"
"fixation-image-keyboard-release-original","1835","489333","0.0-23.0-1.93","","381.2149999999092","Stim/Stim-GB/MM_M.PNG","66","","","2","exp","700","2","1","C","b","true"
"fixation-image-keyboard-release-original","1836","491751","0.0-23.0-1.94","","415.1950000000652","Stim/Stim-GB/IN_I.PNG","86","","","1","exp","700","1","0","C","v","true"
"fixation-image-keyboard-release-original","1837","494137","0.0-23.0-1.95","","384.00499999988824","Stim/Stim-BG/MM_M.PNG","66","","","2","exp","100","2","1","C","b","true"
"html-keyboard-response","1838","517117","0.0-23.0-2.95-0.95","","21977.699999999837","Take a break. Feel free to start again by pressing Enter.","13","","","","","","","","","",""
"fixation-image-keyboard-release-original","2073","519843","0.0-23.0-1.96","","537.1350000000093","Stim/Stim-GB/NM_M.PNG","66","","","1","exp","400","2","1","C","b","true"
"fixation-image-keyboard-release-original","2074","522596","0.0-23.0-1.97","","749.9299999999348","Stim/Stim-GB/MM_M.PNG","66","","","2","exp","400","2","1","C","b","true"
"fixation-image-keyboard-release-original","2075","524998","0.0-23.0-1.98","","400.60499999986496","Stim/Stim-BG/II_M.PNG","66","","","2","exp","700","1","1","IC","b","true"
"fixation-image-keyboard-release-original","2076","527482","0.0-23.0-1.99","","482.37999999988824","Stim/Stim-BG/NI_I.PNG","86","","","1","exp","400","1","0","C","v","true"
"fixation-image-keyboard-release-original","2077","530105","0.0-23.0-1.100","","619.160000000149","Stim/Stim-BG/NM_I.PNG","86","","","1","exp","400","2","0","IC","v","true"
"fixation-image-keyboard-release-original","2078","532626","0.0-23.0-1.101","","519.0000000002328","Stim/Stim-GB/IN_M.PNG","66","","","1","exp","700","1","1","IC","b","true"
"fixation-image-keyboard-release-original","2079","534975","0.0-23.0-1.102","","345.9150000003865","Stim/Stim-BG/II_I.PNG","86","","","2","exp","100","1","0","C","v","true"
"fixation-image-keyboard-release-original","2080","537483","0.0-23.0-1.103","","507.39999999990687","Stim/Stim-BG/MM_I.PNG","86","","","2","exp","400","2","0","IC","v","true"
"fixation-image-keyboard-release-original","2081","539843","0.0-23.0-1.104","","358.43000000028405","Stim/Stim-BG/IN_I.PNG","86","","","1","exp","700","1","0","C","v","true"
"fixation-image-keyboard-release-original","2082","542208","0.0-23.0-1.105","","362.2450000002282","Stim/Stim-GB/MN_I.PNG","86","","","1","exp","700","2","0","IC","v","true"
"fixation-image-keyboard-release-original","2083","544515","0.0-23.0-1.106","","305.1449999997858","Stim/Stim-BG/II_I.PNG","86","","","2","exp","400","1","0","C","v","true"
"fixation-image-keyboard-release-original","2084","546880","0.0-23.0-1.107","","362.95000000018626","Stim/Stim-BG/NM_M.PNG","66","","","1","exp","100","2","1","C","b","true"
"fixation-image-keyboard-release-original","2085","549270","0.0-23.0-1.108","","386.68499999993946","Stim/Stim-GB/II_M.PNG","66","","","2","exp","100","1","1","IC","b","true"
"fixation-image-keyboard-release-original","2086","551597","0.0-23.0-1.109","","325.45499999960884","Stim/Stim-GB/II_M.PNG","66","","","2","exp","700","1","1","IC","b","true"
"fixation-image-keyboard-release-original","2087","554069","0.0-23.0-1.110","","469.3849999998929","Stim/Stim-BG/II_I.PNG","86","","","2","exp","100","1","0","C","v","true"
"fixation-image-keyboard-release-original","2088","557027","0.0-23.0-1.111","","954.1699999999255","Stim/Stim-BG/MN_M.PNG","66","","","1","exp","700","2","1","C","b","true"
"fixation-image-keyboard-release-original","2089","559470","0.0-23.0-1.112","","439.83500000007916","Stim/Stim-GB/NI_I.PNG","86","","","1","exp","100","1","0","C","v","true"
"fixation-image-keyboard-release-original","2090","562112","0.0-23.0-1.113","","640.5350000000326","Stim/Stim-GB/NI_I.PNG","86","","","1","exp","400","1","0","C","v","true"
"fixation-image-keyboard-release-original","2091","564548","0.0-23.0-1.114","","433.4399999998277","Stim/Stim-GB/II_I.PNG","86","","","2","exp","400","1","0","C","v","true"
"fixation-image-keyboard-release-original","2092","567018","0.0-23.0-1.115","","468.1449999999022","Stim/Stim-GB/NM_I.PNG","86","","","1","exp","100","2","0","IC","v","true"
"fixation-image-keyboard-release-original","2093","569441","0.0-23.0-1.116","","421.03499999979977","Stim/Stim-BG/MM_M.PNG","66","","","2","exp","100","2","1","C","b","true"
"fixation-image-keyboard-release-original","2094","571895","0.0-23.0-1.117","","450.96999999985565","Stim/Stim-BG/NI_I.PNG","86","","","1","exp","700","1","0","C","v","true"
"fixation-image-keyboard-release-original","2095","574307","0.0-23.0-1.118","","408.1450000003679","Stim/Stim-GB/II_I.PNG","86","","","2","exp","400","1","0","C","v","true"
"fixation-image-keyboard-release-original","2096","576803","0.0-23.0-1.119","","493.4100000000326","Stim/Stim-BG/NI_M.PNG","66","","","1","exp","700","1","1","IC","b","true"
"fixation-image-keyboard-release-original","2097","579284","0.0-23.0-1.120","","479.12500000023283","Stim/Stim-GB/MM_I.PNG","86","","","2","exp","400","2","0","IC","v","true"
"fixation-image-keyboard-release-original","2098","581737","0.0-23.0-1.121","","450.1400000003632","Stim/Stim-BG/NM_I.PNG","86","","","1","exp","700","2","0","IC","v","true"
"fixation-image-keyboard-release-original","2099","584227","0.0-23.0-1.122","","486.66999999969266","Stim/Stim-GB/MM_I.PNG","86","","","2","exp","400","2","0","IC","v","true"
"fixation-image-keyboard-release-original","2100","586759","0.0-23.0-1.123","","528.6299999997718","Stim/Stim-BG/IN_M.PNG","66","","","1","exp","100","1","1","IC","b","true"
"fixation-image-keyboard-release-original","2101","589520","0.0-23.0-1.124","","759.4499999999534","Stim/Stim-GB/MN_I.PNG","86","","","1","exp","100","2","0","IC","v","true"
"fixation-image-keyboard-release-original","2102","591964","0.0-23.0-1.125","","439.20499999972526","Stim/Stim-BG/MM_M.PNG","66","","","2","exp","400","2","1","C","b","true"
"fixation-image-keyboard-release-original","2103","594402","0.0-23.0-1.126","","435.8050000000512","Stim/Stim-GB/NM_M.PNG","66","","","1","exp","100","2","1","C","b","true"
"fixation-image-keyboard-release-original","2104","596979","0.0-23.0-1.127","","575.6899999997113","Stim/Stim-GB/IN_M.PNG","66","","","1","exp","100","1","1","IC","b","true"
"fixation-image-keyboard-release-original","2105","599497","0.0-23.0-1.128","","514.4699999999721","Stim/Stim-GB/NM_I.PNG","86","","","1","exp","400","2","0","IC","v","true"
"fixation-image-keyboard-release-original","2106","601926","0.0-23.0-1.129","","426.2300000000978","Stim/Stim-BG/MN_I.PNG","86","","","1","exp","700","2","0","IC","v","true"
"fixation-image-keyboard-release-original","2107","604308","0.0-23.0-1.130","","381.0049999996554","Stim/Stim-GB/NM_I.PNG","86","","","1","exp","700","2","0","IC","v","true"
"fixation-image-keyboard-release-original","2108","606682","0.0-23.0-1.131","","370.75","Stim/Stim-BG/IN_I.PNG","86","","","1","exp","400","1","0","C","v","true"
"fixation-image-keyboard-release-original","2109","609079","0.0-23.0-1.132","","394.64000000001397","Stim/Stim-GB/II_I.PNG","86","","","2","exp","700","1","0","C","v","true"
"fixation-image-keyboard-release-original","2110","611555","0.0-23.0-1.133","","473.35000000020955","Stim/Stim-BG/MN_M.PNG","66","","","1","exp","400","2","1","C","b","true"
"fixation-image-keyboard-release-original","2111","613994","0.0-23.0-1.134","","435.19000000017695","Stim/Stim-GB/NI_M.PNG","66","","","1","exp","100","1","1","IC","b","true"
"fixation-image-keyboard-release-original","2112","616482","0.0-23.0-1.135","","483.96500000031665","Stim/Stim-GB/MM_M.PNG","66","","","2","exp","700","2","1","C","b","true"
"fixation-image-keyboard-release-original","2113","618961","0.0-23.0-1.136","","475.79000000003725","Stim/Stim-GB/II_M.PNG","66","","","2","exp","400","1","1","IC","b","true"
"fixation-image-keyboard-release-original","2114","621531","0.0-23.0-1.137","","566.5349999999162","Stim/Stim-BG/NI_I.PNG","86","","","1","exp","100","1","0","C","v","true"
"fixation-image-keyboard-release-original","2115","624068","0.0-23.0-1.138","","535.4099999999162","Stim/Stim-GB/IN_M.PNG","66","","","1","exp","700","1","1","IC","b","true"
"fixation-image-keyboard-release-original","2116","626698","0.0-23.0-1.139","","628.179999999702","Stim/Stim-BG/MN_I.PNG","86","","","1","exp","100","2","0","IC","v","true"
"fixation-image-keyboard-release-original","2117","629222","0.0-23.0-1.140","","520.9350000000559","Stim/Stim-BG/IN_I.PNG","86","","","1","exp","700","1","0","C","v","true"
"fixation-image-keyboard-release-original","2118","631776","0.0-23.0-1.141","","551.6650000000373","Stim/Stim-GB/MM_I.PNG","86","","","2","exp","100","2","0","IC","v","true"
"fixation-image-keyboard-release-original","2119","634273","0.0-23.0-1.142","","494.51499999989755","Stim/Stim-BG/NM_M.PNG","66","","","1","exp","700","2","1","C","b","true"
"fixation-image-keyboard-release-original","2120","636875","0.0-23.0-1.143","","600.2800000001444","Stim/Stim-BG/MM_M.PNG","66","","","2","exp","400","2","1","C","b","true"
"html-keyboard-response","2121","672571","0.0-23.0-2.143-0.143","","34695.789999999804","Take a break. Feel free to start again by pressing Enter.","13","","","","","","","","","",""
"fixation-image-keyboard-release-original","2429","675718","0.0-23.0-1.144","","589.9699999999721","Stim/Stim-GB/MM_I.PNG","86","","","2","exp","700","2","0","IC","v","true"
"fixation-image-keyboard-release-original","2430","678161","0.0-23.0-1.145","","440.7550000001211","Stim/Stim-BG/MM_I.PNG","86","","","2","exp","700","2","0","IC","v","true"
"fixation-image-keyboard-release-original","2431","680522","0.0-23.0-1.146","","358.1899999999441","Stim/Stim-BG/MN_I.PNG","86","","","1","exp","700","2","0","IC","v","true"
"fixation-image-keyboard-release-original","2432","683050","0.0-23.0-1.147","","525.4999999997672","Stim/Stim-BG/MM_I.PNG","86","","","2","exp","100","2","0","IC","v","true"
"fixation-image-keyboard-release-original","2433","685506","0.0-23.0-1.148","","453.4100000000326","Stim/Stim-GB/MN_M.PNG","66","","","1","exp","700","2","1","C","b","true"
"fixation-image-keyboard-release-original","2434","688095","0.0-23.0-1.149","","586.625","Stim/Stim-BG/NM_I.PNG","86","","","1","exp","400","2","0","IC","v","true"
"fixation-image-keyboard-release-original","2435","690711","0.0-23.0-1.150","","614.9200000000419","Stim/Stim-BG/II_I.PNG","86","","","2","exp","700","1","0","C","v","true"
"fixation-image-keyboard-release-original","2436","693136","0.0-23.0-1.151","","422.6600000002654","Stim/Stim-GB/MN_I.PNG","86","","","1","exp","700","2","0","IC","v","true"
"fixation-image-keyboard-release-original","2437","695630","0.0-23.0-1.152","","492.44499999983236","Stim/Stim-BG/MN_I.PNG","86","","","1","exp","400","2","0","IC","v","true"
"fixation-image-keyboard-release-original","2438","698125","0.0-23.0-1.153","","493.1600000000326","Stim/Stim-GB/II_M.PNG","66","","","2","exp","400","1","1","IC","b","true"
"fixation-image-keyboard-release-original","2439","700541","0.0-23.0-1.154","","413.0700000000652","Stim/Stim-BG/MM_I.PNG","86","","","2","exp","400","2","0","IC","v","true"
"fixation-image-keyboard-release-original","2440","703137","0.0-23.0-1.155","","592.7650000002468","Stim/Stim-BG/II_M.PNG","66","","","2","exp","700","1","1","IC","b","true"
"fixation-image-keyboard-release-original","2441","705688","0.0-23.0-1.156","","549.2100000000792","Stim/Stim-GB/IN_I.PNG","86","","","1","exp","100","1","0","C","v","true"
"fixation-image-keyboard-release-original","2442","708434","0.0-23.0-1.157","","744.464999999851","Stim/Stim-BG/MM_I.PNG","86","","","2","exp","100","2","0","IC","v","true"
"fixation-image-keyboard-release-original","2443","710950","0.0-23.0-1.158","","514.2000000000698","Stim/Stim-GB/IN_M.PNG","66","","","1","exp","400","1","1","IC","b","true"
"fixation-image-keyboard-release-original","2444","713441","0.0-23.0-1.159","","487.9499999997206","Stim/Stim-BG/NI_M.PNG","66","","","1","exp","100","1","1","IC","b","true"
"fixation-image-keyboard-release-original","2445","715995","0.0-23.0-1.160","","552.6999999997206","Stim/Stim-GB/II_M.PNG","66","","","2","exp","700","1","1","IC","b","true"
"fixation-image-keyboard-release-original","2446","718395","0.0-23.0-1.161","","398.4749999999767","Stim/Stim-BG/MM_M.PNG","66","","","2","exp","400","2","1","C","b","true"
"fixation-image-keyboard-release-original","2447","720771","0.0-23.0-1.162","","372.21000000007916","Stim/Stim-GB/MM_M.PNG","66","","","2","exp","100","2","1","C","b","true"
"fixation-image-keyboard-release-original","2448","723177","0.0-23.0-1.163","","404.03999999992084","Stim/Stim-BG/MM_M.PNG","66","","","2","exp","100","2","1","C","b","true"
"fixation-image-keyboard-release-original","2449","725560","0.0-23.0-1.164","","379.91499999992084","Stim/Stim-GB/II_M.PNG","66","","","2","exp","100","1","1","IC","b","true"
"fixation-image-keyboard-release-original","2450","727969","0.0-23.0-1.165","","405.7349999998696","Stim/Stim-BG/IN_M.PNG","66","","","1","exp","400","1","1","IC","b","true"
"fixation-image-keyboard-release-original","2451","730325","0.0-23.0-1.166","","354.49500000011176","Stim/Stim-BG/MN_M.PNG","66","","","1","exp","700","2","1","C","b","true"
"fixation-image-keyboard-release-original","2452","732850","0.0-23.0-1.167","","524.0100000000093","Stim/Stim-GB/II_M.PNG","66","","","2","exp","100","1","1","IC","b","true"
"fixation-image-keyboard-release-original","2453","735344","0.0-23.0-1.168","","491.0950000003213","Stim/Stim-BG/II_I.PNG","86","","","2","exp","400","1","0","C","v","true"
"fixation-image-keyboard-release-original","2454","738231","0.0-23.0-1.169","","885.0000000002328","Stim/Stim-BG/IN_M.PNG","66","","","1","exp","700","1","1","IC","b","true"
"fixation-image-keyboard-release-original","2455","740664","0.0-23.0-1.170","","430.6349999997765","Stim/Stim-BG/NM_M.PNG","66","","","1","exp","400","2","1","C","b","true"
"fixation-image-keyboard-release-original","2456","743032","0.0-23.0-1.171","","366.48999999987427","Stim/Stim-BG/NI_M.PNG","66","","","1","exp","400","1","1","IC","b","true"
"fixation-image-keyboard-release-original","2457","745548","0.0-23.0-1.172","","514.2150000000838","Stim/Stim-BG/II_M.PNG","66","","","2","exp","100","1","1","IC","b","true"
"fixation-image-keyboard-release-original","2458","748036","0.0-23.0-1.173","","485.10499999974854","Stim/Stim-GB/MM_I.PNG","86","","","2","exp","400","2","0","IC","v","true"
"fixation-image-keyboard-release-original","2459","750433","0.0-23.0-1.174","","393.9000000001397","Stim/Stim-GB/NM_M.PNG","66","","","1","exp","700","2","1","C","b","true"
"fixation-image-keyboard-release-original","2460","752921","0.0-23.0-1.175","","487.3550000002142","Stim/Stim-BG/II_M.PNG","66","","","2","exp","100","1","1","IC","b","true"
"fixation-image-keyboard-release-original","2461","755381","0.0-23.0-1.176","","457.4550000001909","Stim/Stim-GB/MM_I.PNG","86","","","2","exp","700","2","0","IC","v","true"
"fixation-image-keyboard-release-original","2462","757889","0.0-23.0-1.177","","505.40999999968335","Stim/Stim-GB/MM_I.PNG","86","","","2","exp","700","2","0","IC","v","true"
"fixation-image-keyboard-release-original","2463","760361","0.0-23.0-1.178","","469.99499999999534","Stim/Stim-BG/NI_M.PNG","66","","","1","exp","400","1","1","IC","b","true"
"fixation-image-keyboard-release-original","2464","762819","0.0-23.0-1.179","","453.80500000016764","Stim/Stim-GB/MN_M.PNG","66","","","1","exp","100","2","1","C","b","true"
"fixation-image-keyboard-release-original","2465","765307","0.0-23.0-1.180","","486.6049999999814","Stim/Stim-GB/MM_M.PNG","66","","","2","exp","700","2","1","C","b","true"
"fixation-image-keyboard-release-original","2466","767771","0.0-23.0-1.181","","462.39999999979045","Stim/Stim-GB/II_I.PNG","86","","","2","exp","700","1","0","C","v","true"
"fixation-image-keyboard-release-original","2467","770268","0.0-23.0-1.182","","493.1899999997113","Stim/Stim-BG/II_M.PNG","66","","","2","exp","400","1","1","IC","b","true"
"fixation-image-keyboard-release-original","2468","772896","0.0-23.0-1.183","","626.0649999999441","Stim/Stim-BG/MN_M.PNG","66","","","1","exp","100","2","1","C","b","true"
"fixation-image-keyboard-release-original","2469","775451","0.0-23.0-1.184","","552.7850000002654","Stim/Stim-BG/MM_I.PNG","86","","","2","exp","700","2","0","IC","v","true"
"fixation-image-keyboard-release-original","2470","777998","0.0-23.0-1.185","","544.4699999997392","Stim/Stim-GB/II_I.PNG","86","","","2","exp","700","1","0","C","v","true"
"fixation-image-keyboard-release-original","2471","780524","0.0-23.0-1.186","","523.2200000000885","Stim/Stim-GB/MN_M.PNG","66","","","1","exp","400","2","1","C","b","true"
"fixation-image-keyboard-release-original","2472","783155","0.0-23.0-1.187","","628.0999999998603","Stim/Stim-GB/MM_I.PNG","86","","","2","exp","100","2","0","IC","v","true"
"fixation-image-keyboard-release-original","2473","785730","0.0-23.0-1.188","","573.0100000001257","Stim/Stim-GB/II_M.PNG","66","","","2","exp","700","1","1","IC","b","true"
"fixation-image-keyboard-release-original","2474","788241","0.0-23.0-1.189","","508.93499999982305","Stim/Stim-BG/II_M.PNG","66","","","2","exp","400","1","1","IC","b","true"
"fixation-image-keyboard-release-original","2475","790782","0.0-23.0-1.190","","537.6750000000466","Stim/Stim-GB/MM_I.PNG","86","","","2","exp","400","2","0","IC","v","true"
"fixation-image-keyboard-release-original","2476","793313","0.0-23.0-1.191","","529.5349999996834","Stim/Stim-GB/II_I.PNG","86","","","2","exp","100","1","0","C","v","true"
"call-function","2477","794314","0.0-24.0","","","","","","","","","","","","","",""
"survey-html-form","2478","802337","0.0-25.0","","8020.520000000019","","","{""hands2"":""Right""}","","","","","","","","",""
"html-keyboard-response","2479","828937","0.0-26.0","","26599.94000000006","<p><h1>This is the end of the experiment.</h1></p><p>Please <a href='Debrief.pdf' target='_blank'>Click Here</a> (this will open a new window) to read more about the study.</p><p>Press ENTER to end the experiment (you will be sent to Prolific - if something goes wrong, the completion code for this study is: 3F11CBBF).</p>","13","","","","","","","","","",""
"pavlovia","2480","828945","0.0-27.0","","","","","","","","","","","","","",""
