"trial_type","trial_index","time_elapsed","internal_node_id","value","rt","stimulus","key_press","responses","success","hand","test","gap","finger","cue","con","correct_response","correct"
"pavlovia","0","3","0.0-0.0","","","","","","","","","","","","","",""
"call-function","1","4","0.0-1.0","","","","","","","","","","","","","",""
"html-keyboard-response","2","2439","0.0-2.0","","2434.6949999962817","<div class = 'my_window'><p><h1>Welcome!</h1><br><p><p>This experiment is adminterested by Carl Michael Galang (McMaster University), Dr. Emiel Cracco (Ghent University), Dr. Marcel Brass (Humboldt University of Berlin), & Dr. Sukhvinder Obhi (McMaster University).</p><p>The purpose of this study is to explore basic perceptual processing mechanisms.</p><p>Information gathered during this study will be written up for publication in an academic journal. While there are no direct benefits to you taking part in this study (other than learning more about the research topic and getting paid on Prolific), the results of this study will provide us with a better understanding of perceptual and sensory processes. To learn about this study, particularly in the terms of any associated risks or harms, how confidentiality and anonymity will be handled, withdrawal procedures, incentives that are promised, how to obtain information about the results, etc., please read the accompanying letter of information - <a href='LOI.pdf' target='_blank'>Click Here</a> (this will open a new window).</p><p>This study should take around 10min to complete.</p><p>If you have questions or need more information about the study itself, please contact me at: galangc@mcmaster.ca. This study has been reviewed by the McMaster University Research Ethics Board and received ethics clearance. If you have concerns or questions about your rights as a participant or about the way the study is conducted, please contact the McMaster Research Ethics Secretariat at ethicsoffice@mcmaster.ca.</p><br><p><h1>CONSENT</h1></p><p>I have read the information presented in the letter of information and I agree to participate in this study.</p><p>By pressing Enter, I consent to the above.<p>","13","","","","","","","","","",""
"survey-html-form","3","12766","0.0-3.0","","10325.244999999995","","","{""1"":""5f786394407fc03f1e65a05f""}","","","","","","","","",""
"fullscreen","4","15665","0.0-4.0","","","","","","true","","","","","","","",""
"call-function","5","15665","0.0-5.0","","","","","","","","","","","","","",""
"html-keyboard-response","6","70455","0.0-6.0","","54788.24000000168","<div class = 'my_window'><h1>Instructions</h1><p>Your task in this experiment is to respond to the letters I or M as they appear on the screen. Unlike most experiments, your task will be to <strong><u>release</u></strong> keys (not push).</p><p>Before each trial starts, please ensure that you keep the <strong><u>V key</u></strong> and <strong><u>B key</u></strong> depressed with your <strong><u>right index finger</u></strong> on the <strong><u>V key</u></strong> and your <strong><u>right middle finger</u></strong> on the <strong><u>B key</u></strong> (see image below). Responses on this experiment will consist of lifting your <strong><u>right index finger</u></strong> to release the <strong><u>V key</u></strong> if you see the letter <strong><u>I</u></strong> or lifting your <strong><u>right middle finger</u></strong> to release the <strong><u>B key</u></strong> if you see the letter <strong><u>M</u></strong> as fast as you can. It is important that you <strong><u>only use your right hand</u></strong> to do the task.</p><p><img src='keyboard_img.png'></p><p>While you complete this task, there will be a couple of hands moving in the background. Ignore them and focus on the task.</p><p>Press ENTER to continue.</p></div>","13","","","","","","","","","",""
"html-keyboard-response","7","73380","0.0-7.0","","2924.8050000023795","<div class = 'my_window'><h1>Practice</h1><p>You will first do a practice phase. In the practice phase, you will get feedback on your performance. The practice phase contains 10 trials, but will add an extra trial every time you respond incorrectly.</p><p><p>Before each trial starts, please ensure that you keep the <strong><u>V key</u></strong> and <strong><u>B key</u></strong> depressed with your <strong><u>right index finger</u></strong> on the <strong><u>V key</u></strong> and your <strong><u>right middle finger</u></strong> on the <strong><u>B key</u></strong> (see image below). Responses on this experiment will consist of lifting your <strong><u>right index finger</u></strong> to release the <strong><u>V key</u></strong> if you see the letter <strong><u>I</u></strong> or lifting your <strong><u>right middle finger</u></strong> to release the <strong><u>B key</u></strong> if you see the letter <strong><u>M</u></strong> as fast as you can. It is important that you <strong><u>only use your right hand</u></strong> to do the task.</p><p><img src='keyboard_img.png'></p><p>While you complete this task, there will be a couple of hands moving in the background. Ignore them and focus on the task.</p><p>This is a reaction time experiment, so please try to respond as fast as possible while at the same time minimizing mistakes.</p><p>Press ENTER to begin.</p></div>","13","","","","","","","","","",""
"fixation-image-keyboard-release-original","1469","82742","0.0-8.0-1.0","","1237.1099999945727","Stim/Stim-GB/NM_I.PNG","86","","","1","exp","100","2","0","IC","v","true"
"html-keyboard-response","1470","83847","0.0-8.0-2.0","","null","<p> CORRECT </p>","null","","","","","","","","","",""
"fixation-image-keyboard-release-original","1471","85369","0.0-9.0-1.0","","516.0899999973481","Stim/Stim-BG/IN_I.PNG","86","","","1","exp","700","1","0","C","v","true"
"html-keyboard-response","1472","86474","0.0-9.0-2.0","","null","<p> CORRECT </p>","null","","","","","","","","","",""
"fixation-image-keyboard-release-original","1519","88242","0.0-10.0-1.0","","546.5249999979278","Stim/Stim-GB/II_I.PNG","86","","","2","exp","100","1","0","C","v","true"
"html-keyboard-response","1520","89347","0.0-10.0-2.0","","null","<p> CORRECT </p>","null","","","","","","","","","",""
"fixation-image-keyboard-release-original","1590","91129","0.0-11.0-1.0","","448.23499999620253","Stim/Stim-BG/MM_M.PNG","66","","","2","exp","100","2","1","C","b","true"
"html-keyboard-response","1591","92239","0.0-11.0-2.0","","null","<p> CORRECT </p>","null","","","","","","","","","",""
"fixation-image-keyboard-release-original","1953","95653","0.0-12.0-1.0","","648.5850000026403","Stim/Stim-BG/MM_M.PNG","66","","","2","exp","100","2","1","C","b","true"
"html-keyboard-response","1954","96758","0.0-12.0-2.0","","null","<p> CORRECT </p>","null","","","","","","","","","",""
"fixation-image-keyboard-release-original","1955","98109","0.0-13.0-1.0","","345.3850000005332","Stim/Stim-BG/II_M.PNG","86","","","2","exp","100","1","1","IC","b","false"
"html-keyboard-response","1956","99215","0.0-13.0-2.0","","null","<p> INCORRECT </p>","null","","","","","","","","","",""
"fixation-image-keyboard-release-original","1957","100713","0.0-13.1-1.1","","493.7100000024657","Stim/Stim-BG/NM_M.PNG","66","","","1","exp","400","2","1","C","b","true"
"html-keyboard-response","1958","101818","0.0-13.1-2.1","","null","<p> CORRECT </p>","null","","","","","","","","","",""
"fixation-image-keyboard-release-original","1959","103521","0.0-14.0-1.0","","698.4650000013062","Stim/Stim-BG/II_M.PNG","66","","","2","exp","700","1","1","IC","b","true"
"html-keyboard-response","1960","104627","0.0-14.0-2.0","","null","<p> CORRECT </p>","null","","","","","","","","","",""
"fixation-image-keyboard-release-original","2141","106964","0.0-15.0-1.0","","477.0300000018324","Stim/Stim-GB/MN_I.PNG","86","","","1","exp","400","2","0","IC","v","true"
"html-keyboard-response","2142","108070","0.0-15.0-2.0","","null","<p> CORRECT </p>","null","","","","","","","","","",""
"fixation-image-keyboard-release-original","2311","110533","0.0-16.0-1.0","","655.9500000003027","Stim/Stim-GB/MM_I.PNG","86","","","2","exp","400","2","0","IC","v","true"
"html-keyboard-response","2312","111636","0.0-16.0-2.0","","null","<p> CORRECT </p>","null","","","","","","","","","",""
"fixation-image-keyboard-release-original","2313","113276","0.0-17.0-1.0","","635.5299999995623","Stim/Stim-BG/NM_I.PNG","86","","","1","exp","100","2","0","IC","v","true"
"html-keyboard-response","2314","114382","0.0-17.0-2.0","","null","<p> CORRECT </p>","null","","","","","","","","","",""
"call-function","2315","114383","0.0-18.0","","","","","","","","","","","","","",""
"survey-html-form","2316","119274","0.0-19.0","","4890.175000000454","","","{""hands"":""Right""}","","","","","","","","",""
"html-keyboard-response","2317","126314","0.0-20.0","","7039.519999998447","If you are using <strong><u>just</u></strong> your <strong></u>right hand</u></strong>, then good job! If not, please do so in the main part of the experiment.<br><br>Press Enter to continue","13","","","","","","","","","",""
"html-keyboard-response","2318","133824","0.0-21.0","","7509.745000003022","<div class = 'my_window'><h1>Main Trials</h1><p>Good Job! We will now begin the main trials. In the main trials, you will <strong>not</strong> get feedback. There are 192 trials overall. You will get a self-paced break every 48 trials.</p><p>Instructions Reminder: <p>Before each trial starts, please ensure that you keep the <strong><u>V key</u></strong> and <strong><u>B key</u></strong> depressed with your <strong><u>right index finger</u></strong> on the <strong><u>V key</u></strong> and your <strong><u>right middle finger</u></strong> on the <strong><u>B key</u></strong> (see image below). Responses on this experiment will consist of lifting your <strong><u>right index finger</u></strong> to release the <strong><u>V key</u></strong> if you see the letter <strong><u>I</u></strong> or lifting your <strong><u>right middle finger</u></strong> to release the <strong><u>B key</u></strong> if you see the letter <strong><u>M</u></strong> as fast as you can. It is important that you <strong><u>only use your right hand</u></strong> to do the task.</p><p><img src='keyboard_img.png'></p><p>While you complete this task, there will be a couple of hands moving in the background. Ignore them and focus on the task.</p><p>Remember: this is a reaction time experiment, so please try to respond as fast as possible while at the same time minimizing mistakes.</p><p>Press ENTER to begin.</p></div>","13","","","","","","","","","",""
"call-function","2319","133825","0.0-22.0","","","","","","","","","","","","","",""
"fixation-image-keyboard-release-original","2671","136931","0.0-23.0-1.0","","418.9649999971152","Stim/Stim-GB/MN_I.PNG","86","","","1","exp","100","2","0","IC","v","true"
"fixation-image-keyboard-release-original","2672","139383","0.0-23.0-1.1","","446.0449999969569","Stim/Stim-GB/MM_M.PNG","66","","","2","exp","700","2","1","C","b","true"
"fixation-image-keyboard-release-original","2673","141846","0.0-23.0-1.2","","455.0149999995483","Stim/Stim-GB/NM_I.PNG","66","","","1","exp","400","2","0","IC","v","false"
"fixation-image-keyboard-release-original","2762","144635","0.0-23.0-1.3","","369.8900000017602","Stim/Stim-GB/IN_I.PNG","86","","","1","exp","700","1","0","C","v","true"
"fixation-image-keyboard-release-original","2763","147230","0.0-23.0-1.4","","589.6450000000186","Stim/Stim-BG/MM_M.PNG","66","","","2","exp","400","2","1","C","b","true"
"fixation-image-keyboard-release-original","2872","150467","0.0-23.0-1.5","","718.4300000008079","Stim/Stim-BG/II_M.PNG","66","","","2","exp","100","1","1","IC","b","true"
"fixation-image-keyboard-release-original","2998","153823","0.0-23.0-1.6","","770.1149999993504","Stim/Stim-GB/MM_I.PNG","86","","","2","exp","400","2","0","IC","v","true"
"fixation-image-keyboard-release-original","2999","156298","0.0-23.0-1.7","","472.0049999959883","Stim/Stim-BG/MM_I.PNG","86","","","2","exp","100","2","0","IC","v","true"
"fixation-image-keyboard-release-original","3000","158802","0.0-23.0-1.8","","497.3099999988335","Stim/Stim-GB/NI_I.PNG","86","","","1","exp","100","1","0","C","v","true"
"fixation-image-keyboard-release-original","3001","161166","0.0-23.0-1.9","","361.47499999788124","Stim/Stim-BG/II_I.PNG","86","","","2","exp","400","1","0","C","v","true"
"fixation-image-keyboard-release-original","3002","163707","0.0-23.0-1.10","","533.6400000014692","Stim/Stim-GB/NI_M.PNG","66","","","1","exp","400","1","1","IC","b","true"
"fixation-image-keyboard-release-original","3003","166049","0.0-23.0-1.11","","338.19499999663094","Stim/Stim-BG/MM_I.PNG","86","","","2","exp","100","2","0","IC","v","true"
"fixation-image-keyboard-release-original","3004","168530","0.0-23.0-1.12","","478.080000000773","Stim/Stim-GB/NM_I.PNG","86","","","1","exp","100","2","0","IC","v","true"
"fixation-image-keyboard-release-original","3005","170878","0.0-23.0-1.13","","341.6549999965355","Stim/Stim-GB/MM_I.PNG","86","","","2","exp","100","2","0","IC","v","true"
"fixation-image-keyboard-release-original","3006","173409","0.0-23.0-1.14","","525.3300000040326","Stim/Stim-GB/MM_I.PNG","86","","","2","exp","700","2","0","IC","v","true"
"fixation-image-keyboard-release-original","3007","175765","0.0-23.0-1.15","","347.37000000313856","Stim/Stim-BG/II_I.PNG","86","","","2","exp","400","1","0","C","v","true"
"fixation-image-keyboard-release-original","3008","178326","0.0-23.0-1.16","","553.459999995539","Stim/Stim-BG/MN_M.PNG","66","","","1","exp","700","2","1","C","b","true"
"fixation-image-keyboard-release-original","3009","180678","0.0-23.0-1.17","","343.5600000011618","Stim/Stim-BG/II_M.PNG","86","","","2","exp","100","1","1","IC","b","false"
"fixation-image-keyboard-release-original","3010","183278","0.0-23.0-1.18","","591.5850000019418","Stim/Stim-BG/MM_I.PNG","86","","","2","exp","400","2","0","IC","v","true"
"fixation-image-keyboard-release-original","3011","185922","0.0-23.0-1.19","","634.4800000006217","Stim/Stim-GB/MM_M.PNG","66","","","2","exp","700","2","1","C","b","true"
"fixation-image-keyboard-release-original","3012","188730","0.0-23.0-1.20","","799.6550000025309","Stim/Stim-GB/II_M.PNG","66","","","2","exp","100","1","1","IC","b","true"
"fixation-image-keyboard-release-original","3013","191209","0.0-23.0-1.21","","473.7749999985681","Stim/Stim-GB/II_I.PNG","86","","","2","exp","700","1","0","C","v","true"
"fixation-image-keyboard-release-original","3014","193630","0.0-23.0-1.22","","415.0999999983469","Stim/Stim-GB/MM_I.PNG","86","","","2","exp","100","2","0","IC","v","true"
"fixation-image-keyboard-release-original","3015","196317","0.0-23.0-1.23","","680.1150000028429","Stim/Stim-GB/IN_M.PNG","66","","","1","exp","100","1","1","IC","b","true"
"fixation-image-keyboard-release-original","3016","198869","0.0-23.0-1.24","","546.9300000040676","Stim/Stim-BG/NI_I.PNG","86","","","1","exp","400","1","0","C","v","true"
"fixation-image-keyboard-release-original","3017","201261","0.0-23.0-1.25","","383.28500000352506","Stim/Stim-GB/MM_I.PNG","86","","","2","exp","700","2","0","IC","v","true"
"fixation-image-keyboard-release-original","3018","203737","0.0-23.0-1.26","","471.98999999818625","Stim/Stim-GB/NM_M.PNG","66","","","1","exp","100","2","1","C","b","true"
"fixation-image-keyboard-release-original","3019","206257","0.0-23.0-1.27","","510.97999999910826","Stim/Stim-GB/IN_I.PNG","86","","","1","exp","400","1","0","C","v","true"
"fixation-image-keyboard-release-original","3020","208657","0.0-23.0-1.28","","390.8799999990151","Stim/Stim-BG/II_I.PNG","86","","","2","exp","700","1","0","C","v","true"
"fixation-image-keyboard-release-original","3021","211089","0.0-23.0-1.29","","428.3399999985704","Stim/Stim-GB/MM_I.PNG","86","","","2","exp","700","2","0","IC","v","true"
"fixation-image-keyboard-release-original","3022","213661","0.0-23.0-1.30","","561.4750000022468","Stim/Stim-BG/MM_M.PNG","66","","","2","exp","700","2","1","C","b","true"
"fixation-image-keyboard-release-original","3023","216417","0.0-23.0-1.31","","753.179999999702","Stim/Stim-BG/NI_M.PNG","66","","","1","exp","100","1","1","IC","b","true"
"fixation-image-keyboard-release-original","3024","218817","0.0-23.0-1.32","","392.4750000005588","Stim/Stim-BG/MM_I.PNG","86","","","2","exp","400","2","0","IC","v","true"
"fixation-image-keyboard-release-original","3025","221213","0.0-23.0-1.33","","386.8649999931222","Stim/Stim-BG/NI_I.PNG","86","","","1","exp","700","1","0","C","v","true"
"fixation-image-keyboard-release-original","3026","223828","0.0-23.0-1.34","","605.2700000000186","Stim/Stim-GB/II_M.PNG","66","","","2","exp","700","1","1","IC","b","true"
"fixation-image-keyboard-release-original","3027","226204","0.0-23.0-1.35","","371.1200000034296","Stim/Stim-BG/II_M.PNG","86","","","2","exp","400","1","1","IC","b","false"
"fixation-image-keyboard-release-original","3028","228837","0.0-23.0-1.36","","631.4350000029663","Stim/Stim-GB/NM_I.PNG","86","","","1","exp","700","2","0","IC","v","true"
"fixation-image-keyboard-release-original","3029","231260","0.0-23.0-1.37","","418.3950000006007","Stim/Stim-BG/IN_I.PNG","86","","","1","exp","700","1","0","C","v","true"
"fixation-image-keyboard-release-original","3030","233785","0.0-23.0-1.38","","514.9299999975483","Stim/Stim-BG/NM_M.PNG","66","","","1","exp","700","2","1","C","b","true"
"fixation-image-keyboard-release-original","3031","236200","0.0-23.0-1.39","","408.60999999858905","Stim/Stim-GB/II_I.PNG","86","","","2","exp","400","1","0","C","v","true"
"fixation-image-keyboard-release-original","3032","238816","0.0-23.0-1.40","","611.6350000011153","Stim/Stim-BG/IN_M.PNG","66","","","1","exp","400","1","1","IC","b","true"
"fixation-image-keyboard-release-original","3033","241361","0.0-23.0-1.41","","541.1149999999907","Stim/Stim-GB/IN_I.PNG","86","","","1","exp","700","1","0","C","v","true"
"fixation-image-keyboard-release-original","3034","243889","0.0-23.0-1.42","","521.1899999994785","Stim/Stim-BG/MM_I.PNG","86","","","2","exp","700","2","0","IC","v","true"
"fixation-image-keyboard-release-original","3035","246437","0.0-23.0-1.43","","544.0499999967869","Stim/Stim-GB/NM_M.PNG","66","","","1","exp","100","2","1","C","b","true"
"fixation-image-keyboard-release-original","3036","248949","0.0-23.0-1.44","","506.3949999967008","Stim/Stim-BG/MM_I.PNG","86","","","2","exp","700","2","0","IC","v","true"
"fixation-image-keyboard-release-original","3037","251476","0.0-23.0-1.45","","521.469999999681","Stim/Stim-BG/MM_M.PNG","66","","","2","exp","100","2","1","C","b","true"
"fixation-image-keyboard-release-original","3038","254188","0.0-23.0-1.46","","710.109999999986","Stim/Stim-BG/MN_M.PNG","66","","","1","exp","700","2","1","C","b","true"
"fixation-image-keyboard-release-original","3039","256764","0.0-23.0-1.47","","567.0400000017253","Stim/Stim-BG/MN_I.PNG","86","","","1","exp","700","2","0","IC","v","true"
"html-keyboard-response","3040","260961","0.0-23.0-2.47-0.47","","3195.9700000006706","Take a break. Feel free to start again by pressing Enter.","13","","","","","","","","","",""
"fixation-image-keyboard-release-original","3428","264224","0.0-23.0-1.48","","393.7649999934365","Stim/Stim-BG/II_I.PNG","86","","","2","exp","100","1","0","C","v","true"
"fixation-image-keyboard-release-original","3429","266620","0.0-23.0-1.49","","392.1750000008615","Stim/Stim-GB/II_I.PNG","86","","","2","exp","700","1","0","C","v","true"
"fixation-image-keyboard-release-original","3430","269036","0.0-23.0-1.50","","409.7249999977066","Stim/Stim-GB/NI_I.PNG","86","","","1","exp","700","1","0","C","v","true"
"fixation-image-keyboard-release-original","3431","271544","0.0-23.0-1.51","","504.51500000053784","Stim/Stim-BG/NM_I.PNG","86","","","1","exp","700","2","0","IC","v","true"
"fixation-image-keyboard-release-original","3432","273924","0.0-23.0-1.52","","369.60499999986496","Stim/Stim-GB/II_M.PNG","86","","","2","exp","100","1","1","IC","b","false"
"fixation-image-keyboard-release-original","3433","276312","0.0-23.0-1.53","","381.49500000145053","Stim/Stim-GB/MM_I.PNG","86","","","2","exp","400","2","0","IC","v","true"
"fixation-image-keyboard-release-original","3434","278820","0.0-23.0-1.54","","500.0149999978021","Stim/Stim-BG/MM_I.PNG","86","","","2","exp","400","2","0","IC","v","true"
"fixation-image-keyboard-release-original","3435","281260","0.0-23.0-1.55","","430.65999999816995","Stim/Stim-BG/IN_I.PNG","86","","","1","exp","700","1","0","C","v","true"
"fixation-image-keyboard-release-original","3436","283784","0.0-23.0-1.56","","514.6949999980279","Stim/Stim-GB/MM_M.PNG","66","","","2","exp","700","2","1","C","b","true"
"fixation-image-keyboard-release-original","3437","286260","0.0-23.0-1.57","","470.9149999980582","Stim/Stim-BG/MN_I.PNG","86","","","1","exp","100","2","0","IC","v","true"
"fixation-image-keyboard-release-original","3438","288792","0.0-23.0-1.58","","523.3749999970314","Stim/Stim-BG/MM_I.PNG","86","","","2","exp","100","2","0","IC","v","true"
"fixation-image-keyboard-release-original","3439","291307","0.0-23.0-1.59","","510.325000002922","Stim/Stim-BG/NM_I.PNG","86","","","1","exp","400","2","0","IC","v","true"
"fixation-image-keyboard-release-original","3440","293660","0.0-23.0-1.60","","342.93500000057975","Stim/Stim-BG/II_I.PNG","86","","","2","exp","400","1","0","C","v","true"
"fixation-image-keyboard-release-original","3441","296215","0.0-23.0-1.61","","550.2400000041234","Stim/Stim-GB/NM_M.PNG","66","","","1","exp","400","2","1","C","b","true"
"fixation-image-keyboard-release-original","3442","298559","0.0-23.0-1.62","","337.4850000036531","Stim/Stim-GB/II_I.PNG","86","","","2","exp","700","1","0","C","v","true"
"fixation-image-keyboard-release-original","3443","301156","0.0-23.0-1.63","","588.129999996454","Stim/Stim-BG/MN_M.PNG","66","","","1","exp","100","2","1","C","b","true"
"fixation-image-keyboard-release-original","3444","303475","0.0-23.0-1.64","","315.5049999986659","Stim/Stim-GB/II_M.PNG","86","","","2","exp","400","1","1","IC","b","false"
"fixation-image-keyboard-release-original","3445","305947","0.0-23.0-1.65","","466.549999997369","Stim/Stim-BG/NM_M.PNG","66","","","1","exp","100","2","1","C","b","true"
"fixation-image-keyboard-release-original","3446","308555","0.0-23.0-1.66","","602.5850000005448","Stim/Stim-BG/II_M.PNG","66","","","2","exp","400","1","1","IC","b","true"
"fixation-image-keyboard-release-original","3447","310963","0.0-23.0-1.67","","400.8299999986775","Stim/Stim-BG/NM_I.PNG","66","","","1","exp","700","2","0","IC","v","false"
"fixation-image-keyboard-release-original","3448","313471","0.0-23.0-1.68","","503.404999995837","Stim/Stim-GB/NI_I.PNG","86","","","1","exp","700","1","0","C","v","true"
"fixation-image-keyboard-release-original","3449","316075","0.0-23.0-1.69","","597.009999997681","Stim/Stim-GB/MM_M.PNG","66","","","2","exp","100","2","1","C","b","true"
"fixation-image-keyboard-release-original","3450","318448","0.0-23.0-1.70","","364.40500000026077","Stim/Stim-BG/MN_I.PNG","86","","","1","exp","700","2","0","IC","v","true"
"fixation-image-keyboard-release-original","3451","320919","0.0-23.0-1.71","","460.5999999985215","Stim/Stim-GB/II_I.PNG","86","","","2","exp","100","1","0","C","v","true"
"fixation-image-keyboard-release-original","3452","323490","0.0-23.0-1.72","","564.7900000039954","Stim/Stim-BG/MM_M.PNG","66","","","2","exp","100","2","1","C","b","true"
"fixation-image-keyboard-release-original","3453","326171","0.0-23.0-1.73","","675.2350000024308","Stim/Stim-GB/IN_M.PNG","66","","","1","exp","700","1","1","IC","b","true"
"fixation-image-keyboard-release-original","3454","328779","0.0-23.0-1.74","","599.0200000014738","Stim/Stim-BG/MM_M.PNG","66","","","2","exp","100","2","1","C","b","true"
"fixation-image-keyboard-release-original","3455","331655","0.0-23.0-1.75","","873.8250000023982","Stim/Stim-BG/MM_I.PNG","86","","","2","exp","700","2","0","IC","v","true"
"fixation-image-keyboard-release-original","3456","334263","0.0-23.0-1.76","","604.3100000024424","Stim/Stim-BG/MM_M.PNG","66","","","2","exp","700","2","1","C","b","true"
"fixation-image-keyboard-release-original","3457","336830","0.0-23.0-1.77","","564.1200000027311","Stim/Stim-BG/MM_M.PNG","66","","","2","exp","400","2","1","C","b","true"
"fixation-image-keyboard-release-original","3458","339131","0.0-23.0-1.78","","298.1450000006589","Stim/Stim-GB/IN_M.PNG","86","","","1","exp","100","1","1","IC","b","false"
"fixation-image-keyboard-release-original","3459","341767","0.0-23.0-1.79","","629.0000000008149","Stim/Stim-BG/II_M.PNG","66","","","2","exp","700","1","1","IC","b","true"
"fixation-image-keyboard-release-original","3460","344274","0.0-23.0-1.80","","499.4650000007823","Stim/Stim-GB/NI_I.PNG","86","","","1","exp","400","1","0","C","v","true"
"fixation-image-keyboard-release-original","3461","346714","0.0-23.0-1.81","","437.47499999881256","Stim/Stim-BG/MN_M.PNG","86","","","1","exp","400","2","1","C","b","false"
"fixation-image-keyboard-release-original","3462","349326","0.0-23.0-1.82","","608.8499999968917","Stim/Stim-BG/MN_M.PNG","66","","","1","exp","400","2","1","C","b","true"
"fixation-image-keyboard-release-original","3463","351889","0.0-23.0-1.83","","556.959999994433","Stim/Stim-BG/NM_M.PNG","66","","","1","exp","400","2","1","C","b","true"
"fixation-image-keyboard-release-original","3464","354426","0.0-23.0-1.84","","532.6099999947473","Stim/Stim-GB/MN_M.PNG","66","","","1","exp","100","2","1","C","b","true"
"fixation-image-keyboard-release-original","3465","356913","0.0-23.0-1.85","","477.44999999849824","Stim/Stim-BG/MN_I.PNG","86","","","1","exp","100","2","0","IC","v","true"
"fixation-image-keyboard-release-original","3466","359638","0.0-23.0-1.86","","721.4549999989686","Stim/Stim-GB/IN_M.PNG","66","","","1","exp","700","1","1","IC","b","true"
"fixation-image-keyboard-release-original","3467","362250","0.0-23.0-1.87","","602.1450000043842","Stim/Stim-GB/MM_M.PNG","66","","","2","exp","400","2","1","C","b","true"
"fixation-image-keyboard-release-original","3468","374331","0.0-23.0-1.88","","10073.255000002973","Stim/Stim-BG/IN_M.PNG","66","","","1","exp","100","1","1","IC","b","true"
"fixation-image-keyboard-release-original","3750","378359","0.0-23.0-1.89","","678.9700000008452","Stim/Stim-BG/NI_I.PNG","86","","","1","exp","400","1","0","C","v","true"
"fixation-image-keyboard-release-original","3751","381263","0.0-23.0-1.90","","900.6000000008498","Stim/Stim-BG/NI_M.PNG","66","","","1","exp","700","1","1","IC","b","true"
"fixation-image-keyboard-release-original","3752","383764","0.0-23.0-1.91","","492.00500000006286","Stim/Stim-GB/MN_I.PNG","86","","","1","exp","700","2","0","IC","v","true"
"fixation-image-keyboard-release-original","3753","386415","0.0-23.0-1.92","","648.4549999950104","Stim/Stim-GB/IN_M.PNG","66","","","1","exp","400","1","1","IC","b","true"
"fixation-image-keyboard-release-original","3754","389367","0.0-23.0-1.93","","946.5349999954924","Stim/Stim-GB/II_M.PNG","66","","","2","exp","100","1","1","IC","b","true"
"fixation-image-keyboard-release-original","3755","392083","0.0-23.0-1.94","","708.0249999999069","Stim/Stim-GB/II_M.PNG","66","","","2","exp","700","1","1","IC","b","true"
"fixation-image-keyboard-release-original","3756","394671","0.0-23.0-1.95","","579.185000002326","Stim/Stim-GB/MM_I.PNG","86","","","2","exp","700","2","0","IC","v","true"
"html-keyboard-response","3757","420560","0.0-23.0-2.95-0.95","","24886.444999996456","Take a break. Feel free to start again by pressing Enter.","13","","","","","","","","","",""
"fixation-image-keyboard-release-original","4110","423866","0.0-23.0-1.96","","604.0200000061304","Stim/Stim-GB/NI_M.PNG","66","","","1","exp","700","1","1","IC","b","true"
"fixation-image-keyboard-release-original","4111","426442","0.0-23.0-1.97","","569.934999999532","Stim/Stim-BG/II_M.PNG","66","","","2","exp","700","1","1","IC","b","true"
"fixation-image-keyboard-release-original","4112","428841","0.0-23.0-1.98","","393.4300000037183","Stim/Stim-GB/MM_M.PNG","66","","","2","exp","400","2","1","C","b","true"
"fixation-image-keyboard-release-original","4113","431329","0.0-23.0-1.99","","482.16999999567633","Stim/Stim-BG/NI_I.PNG","86","","","1","exp","100","1","0","C","v","true"
"fixation-image-keyboard-release-original","4114","433694","0.0-23.0-1.100","","357.15999999956694","Stim/Stim-BG/II_I.PNG","86","","","2","exp","100","1","0","C","v","true"
"fixation-image-keyboard-release-original","4115","436030","0.0-23.0-1.101","","331.10499999747844","Stim/Stim-BG/MM_I.PNG","86","","","2","exp","100","2","0","IC","v","true"
"fixation-image-keyboard-release-original","4116","438681","0.0-23.0-1.102","","647.1200000014505","Stim/Stim-GB/MN_M.PNG","66","","","1","exp","100","2","1","C","b","true"
"fixation-image-keyboard-release-original","4117","441138","0.0-23.0-1.103","","449.8500000045169","Stim/Stim-BG/IN_I.PNG","86","","","1","exp","100","1","0","C","v","true"
"fixation-image-keyboard-release-original","4118","443677","0.0-23.0-1.104","","534.9399999977322","Stim/Stim-GB/MM_M.PNG","66","","","2","exp","100","2","1","C","b","true"
"fixation-image-keyboard-release-original","4119","446257","0.0-23.0-1.105","","572.970000001078","Stim/Stim-GB/IN_M.PNG","66","","","1","exp","400","1","1","IC","b","true"
"fixation-image-keyboard-release-original","4120","448801","0.0-23.0-1.106","","540.0699999954668","Stim/Stim-GB/II_M.PNG","66","","","2","exp","400","1","1","IC","b","true"
"fixation-image-keyboard-release-original","4121","451257","0.0-23.0-1.107","","451.97499999630963","Stim/Stim-BG/NI_M.PNG","66","","","1","exp","400","1","1","IC","b","true"
"fixation-image-keyboard-release-original","4122","453733","0.0-23.0-1.108","","470.645000001241","Stim/Stim-BG/NM_M.PNG","66","","","1","exp","100","2","1","C","b","true"
"fixation-image-keyboard-release-original","4123","456097","0.0-23.0-1.109","","355.970000004163","Stim/Stim-GB/II_M.PNG","86","","","2","exp","700","1","1","IC","b","false"
"fixation-image-keyboard-release-original","4343","459641","0.0-23.0-1.110","","506.93000000319444","Stim/Stim-BG/NI_M.PNG","66","","","1","exp","400","1","1","IC","b","true"
"fixation-image-keyboard-release-original","4344","462237","0.0-23.0-1.111","","588.3350000003702","Stim/Stim-GB/MN_I.PNG","86","","","1","exp","100","2","0","IC","v","true"
"fixation-image-keyboard-release-original","4345","464741","0.0-23.0-1.112","","497.11499999830266","Stim/Stim-GB/MN_I.PNG","86","","","1","exp","400","2","0","IC","v","true"
"fixation-image-keyboard-release-original","4346","467326","0.0-23.0-1.113","","579.4000000023516","Stim/Stim-BG/MM_M.PNG","66","","","2","exp","700","2","1","C","b","true"
"fixation-image-keyboard-release-original","4347","469916","0.0-23.0-1.114","","586.5649999977904","Stim/Stim-GB/II_M.PNG","66","","","2","exp","100","1","1","IC","b","true"
"fixation-image-keyboard-release-original","4348","472380","0.0-23.0-1.115","","462.55000000383006","Stim/Stim-BG/IN_I.PNG","86","","","1","exp","100","1","0","C","v","true"
"fixation-image-keyboard-release-original","4349","474920","0.0-23.0-1.116","","531.7199999990407","Stim/Stim-BG/IN_M.PNG","66","","","1","exp","400","1","1","IC","b","true"
"fixation-image-keyboard-release-original","4350","477468","0.0-23.0-1.117","","542.9999999978463","Stim/Stim-GB/MN_I.PNG","86","","","1","exp","400","2","0","IC","v","true"
"fixation-image-keyboard-release-original","4351","480004","0.0-23.0-1.118","","527.0300000047428","Stim/Stim-GB/NM_I.PNG","86","","","1","exp","400","2","0","IC","v","true"
"fixation-image-keyboard-release-original","4352","482489","0.0-23.0-1.119","","477.87000000244007","Stim/Stim-BG/MN_I.PNG","86","","","1","exp","400","2","0","IC","v","true"
"fixation-image-keyboard-release-original","4353","484872","0.0-23.0-1.120","","376.605000004929","Stim/Stim-BG/II_I.PNG","86","","","2","exp","400","1","0","C","v","true"
"fixation-image-keyboard-release-original","4354","487272","0.0-23.0-1.121","","392.9100000023027","Stim/Stim-GB/II_I.PNG","86","","","2","exp","400","1","0","C","v","true"
"fixation-image-keyboard-release-original","4355","489849","0.0-23.0-1.122","","574.0250000017113","Stim/Stim-GB/MM_M.PNG","66","","","2","exp","100","2","1","C","b","true"
"fixation-image-keyboard-release-original","4356","492321","0.0-23.0-1.123","","465.0899999978719","Stim/Stim-GB/II_I.PNG","86","","","2","exp","100","1","0","C","v","true"
"fixation-image-keyboard-release-original","4357","494688","0.0-23.0-1.124","","359.06999999861","Stim/Stim-BG/II_I.PNG","86","","","2","exp","700","1","0","C","v","true"
"fixation-image-keyboard-release-original","4358","497288","0.0-23.0-1.125","","592.0100000003004","Stim/Stim-GB/II_M.PNG","66","","","2","exp","400","1","1","IC","b","true"
"fixation-image-keyboard-release-original","4359","499624","0.0-23.0-1.126","","330.7399999976042","Stim/Stim-GB/MM_I.PNG","86","","","2","exp","400","2","0","IC","v","true"
"fixation-image-keyboard-release-original","4360","502300","0.0-23.0-1.127","","673.7649999995483","Stim/Stim-BG/IN_M.PNG","66","","","1","exp","700","1","1","IC","b","true"
"fixation-image-keyboard-release-original","4361","504820","0.0-23.0-1.128","","517.8050000031362","Stim/Stim-GB/II_I.PNG","86","","","2","exp","400","1","0","C","v","true"
"fixation-image-keyboard-release-original","4362","507344","0.0-23.0-1.129","","522.0599999956903","Stim/Stim-BG/NM_I.PNG","86","","","1","exp","100","2","0","IC","v","true"
"fixation-image-keyboard-release-original","4363","509839","0.0-23.0-1.130","","490.2100000035716","Stim/Stim-BG/II_I.PNG","86","","","2","exp","100","1","0","C","v","true"
"fixation-image-keyboard-release-original","4364","512520","0.0-23.0-1.131","","678.0350000044564","Stim/Stim-BG/II_M.PNG","66","","","2","exp","100","1","1","IC","b","true"
"fixation-image-keyboard-release-original","4365","515036","0.0-23.0-1.132","","509.9800000025425","Stim/Stim-GB/II_I.PNG","86","","","2","exp","400","1","0","C","v","true"
"fixation-image-keyboard-release-original","4366","517548","0.0-23.0-1.133","","503.59000000025844","Stim/Stim-BG/NI_I.PNG","86","","","1","exp","700","1","0","C","v","true"
"fixation-image-keyboard-release-original","4367","520220","0.0-23.0-1.134","","668.0649999980233","Stim/Stim-BG/MN_I.PNG","86","","","1","exp","400","2","0","IC","v","true"
"fixation-image-keyboard-release-original","4368","522764","0.0-23.0-1.135","","537.5200000052573","Stim/Stim-GB/NM_I.PNG","86","","","1","exp","700","2","0","IC","v","true"
"fixation-image-keyboard-release-original","4369","525152","0.0-23.0-1.136","","383.9499999957625","Stim/Stim-BG/IN_I.PNG","86","","","1","exp","400","1","0","C","v","true"
"fixation-image-keyboard-release-original","4370","527768","0.0-23.0-1.137","","612.1650000059744","Stim/Stim-BG/NM_M.PNG","66","","","1","exp","700","2","1","C","b","true"
"fixation-image-keyboard-release-original","4371","530287","0.0-23.0-1.138","","513.0150000040885","Stim/Stim-GB/MM_M.PNG","66","","","2","exp","700","2","1","C","b","true"
"fixation-image-keyboard-release-original","4372","532831","0.0-23.0-1.139","","536.5950000050943","Stim/Stim-GB/MM_I.PNG","86","","","2","exp","100","2","0","IC","v","true"
"fixation-image-keyboard-release-original","4373","535319","0.0-23.0-1.140","","483.0599999986589","Stim/Stim-GB/NI_I.PNG","86","","","1","exp","100","1","0","C","v","true"
"fixation-image-keyboard-release-original","4374","537707","0.0-23.0-1.141","","382.3649999976624","Stim/Stim-BG/NI_I.PNG","86","","","1","exp","100","1","0","C","v","true"
"fixation-image-keyboard-release-original","4375","540279","0.0-23.0-1.142","","563.1149999971967","Stim/Stim-BG/NI_M.PNG","66","","","1","exp","700","1","1","IC","b","true"
"fixation-image-keyboard-release-original","4376","543075","0.0-23.0-1.143","","792.6950000036741","Stim/Stim-GB/NM_I.PNG","86","","","1","exp","100","2","0","IC","v","true"
"html-keyboard-response","4377","587554","0.0-23.0-2.143-0.143","","43476.45500000368","Take a break. Feel free to start again by pressing Enter.","13","","","","","","","","","",""
"fixation-image-keyboard-release-original","4628","590182","0.0-23.0-1.144","","425.8750000006985","Stim/Stim-GB/IN_I.PNG","86","","","1","exp","100","1","0","C","v","true"
"fixation-image-keyboard-release-original","4629","592794","0.0-23.0-1.145","","608.8499999968335","Stim/Stim-GB/MN_M.PNG","66","","","1","exp","700","2","1","C","b","true"
"fixation-image-keyboard-release-original","4630","595342","0.0-23.0-1.146","","546.4199999987613","Stim/Stim-GB/MN_M.PNG","66","","","1","exp","400","2","1","C","b","true"
"fixation-image-keyboard-release-original","4631","597986","0.0-23.0-1.147","","635.7149999965914","Stim/Stim-BG/II_M.PNG","66","","","2","exp","400","1","1","IC","b","true"
"fixation-image-keyboard-release-original","4632","600493","0.0-23.0-1.148","","501.6299999989569","Stim/Stim-GB/NI_I.PNG","86","","","1","exp","400","1","0","C","v","true"
"fixation-image-keyboard-release-original","4633","602933","0.0-23.0-1.149","","436.18000000412576","Stim/Stim-GB/II_I.PNG","86","","","2","exp","100","1","0","C","v","true"
"fixation-image-keyboard-release-original","4634","605581","0.0-23.0-1.150","","640.1600000027101","Stim/Stim-GB/MM_M.PNG","66","","","2","exp","100","2","1","C","b","true"
"fixation-image-keyboard-release-original","4635","608477","0.0-23.0-1.151","","889.3800000005867","Stim/Stim-GB/MN_M.PNG","66","","","1","exp","400","2","1","C","b","true"
"fixation-image-keyboard-release-original","4636","611081","0.0-23.0-1.152","","601.660000000149","Stim/Stim-GB/II_I.PNG","86","","","2","exp","100","1","0","C","v","true"
"fixation-image-keyboard-release-original","4637","613617","0.0-23.0-1.153","","527.2399999957997","Stim/Stim-GB/NI_M.PNG","66","","","1","exp","400","1","1","IC","b","true"
"fixation-image-keyboard-release-original","4638","616053","0.0-23.0-1.154","","431.48500000103377","Stim/Stim-BG/II_I.PNG","86","","","2","exp","100","1","0","C","v","true"
"fixation-image-keyboard-release-original","4639","618509","0.0-23.0-1.155","","450.9699999981094","Stim/Stim-BG/II_I.PNG","86","","","2","exp","700","1","0","C","v","true"
"fixation-image-keyboard-release-original","4640","620961","0.0-23.0-1.156","","441.38999999989755","Stim/Stim-BG/NM_I.PNG","86","","","1","exp","400","2","0","IC","v","true"
"fixation-image-keyboard-release-original","4641","623333","0.0-23.0-1.157","","366.88999999756925","Stim/Stim-BG/II_M.PNG","86","","","2","exp","100","1","1","IC","b","false"
"fixation-image-keyboard-release-original","4642","625736","0.0-23.0-1.158","","397.5150000042049","Stim/Stim-GB/NM_M.PNG","66","","","1","exp","700","2","1","C","b","true"
"fixation-image-keyboard-release-original","4643","628460","0.0-23.0-1.159","","713.9849999949802","Stim/Stim-BG/IN_M.PNG","66","","","1","exp","100","1","1","IC","b","true"
"fixation-image-keyboard-release-original","4644","630996","0.0-23.0-1.160","","532.4350000009872","Stim/Stim-BG/IN_M.PNG","66","","","1","exp","700","1","1","IC","b","true"
"fixation-image-keyboard-release-original","4645","633485","0.0-23.0-1.161","","483.0549999970244","Stim/Stim-GB/IN_I.PNG","86","","","1","exp","400","1","0","C","v","true"
"fixation-image-keyboard-release-original","4646","635980","0.0-23.0-1.162","","491.1649999994552","Stim/Stim-BG/MM_M.PNG","66","","","2","exp","700","2","1","C","b","true"
"fixation-image-keyboard-release-original","4647","638620","0.0-23.0-1.163","","636.8199999995995","Stim/Stim-BG/II_M.PNG","66","","","2","exp","400","1","1","IC","b","true"
"fixation-image-keyboard-release-original","4648","641109","0.0-23.0-1.164","","484.8649999984773","Stim/Stim-BG/MM_M.PNG","66","","","2","exp","400","2","1","C","b","true"
"fixation-image-keyboard-release-original","4649","643637","0.0-23.0-1.165","","523.7699999997858","Stim/Stim-BG/MN_M.PNG","66","","","1","exp","100","2","1","C","b","true"
"fixation-image-keyboard-release-original","4650","646201","0.0-23.0-1.166","","562.2399999992922","Stim/Stim-BG/NM_I.PNG","86","","","1","exp","100","2","0","IC","v","true"
"fixation-image-keyboard-release-original","4651","648852","0.0-23.0-1.167","","644.8200000014622","Stim/Stim-BG/MM_M.PNG","66","","","2","exp","400","2","1","C","b","true"
"fixation-image-keyboard-release-original","4652","651352","0.0-23.0-1.168","","495.10000000009313","Stim/Stim-GB/MM_M.PNG","66","","","2","exp","400","2","1","C","b","true"
"fixation-image-keyboard-release-original","4653","653899","0.0-23.0-1.169","","539.5150000040885","Stim/Stim-GB/NI_M.PNG","66","","","1","exp","100","1","1","IC","b","true"
"fixation-image-keyboard-release-original","4654","656364","0.0-23.0-1.170","","460.9049999997951","Stim/Stim-BG/NM_M.PNG","66","","","1","exp","400","2","1","C","b","true"
"fixation-image-keyboard-release-original","4655","658940","0.0-23.0-1.171","","572.4699999990407","Stim/Stim-GB/MM_M.PNG","66","","","2","exp","400","2","1","C","b","true"
"fixation-image-keyboard-release-original","4656","661668","0.0-23.0-1.172","","723.7499999973224","Stim/Stim-BG/MM_I.PNG","86","","","2","exp","700","2","0","IC","v","true"
"fixation-image-keyboard-release-original","4657","664296","0.0-23.0-1.173","","621.3600000046426","Stim/Stim-BG/MM_I.PNG","86","","","2","exp","400","2","0","IC","v","true"
"fixation-image-keyboard-release-original","4658","666956","0.0-23.0-1.174","","655.2000000010012","Stim/Stim-GB/II_M.PNG","66","","","2","exp","700","1","1","IC","b","true"
"fixation-image-keyboard-release-original","4659","690202","0.0-23.0-1.175","","21242.28000000585","Stim/Stim-BG/II_I.PNG","86","","","2","exp","700","1","0","C","v","true"
"fixation-image-keyboard-release-original","4660","692822","0.0-23.0-1.176","","617.4800000007963","Stim/Stim-BG/IN_I.PNG","86","","","1","exp","400","1","0","C","v","true"
"fixation-image-keyboard-release-original","4661","695394","0.0-23.0-1.177","","566.9899999994086","Stim/Stim-GB/NI_M.PNG","66","","","1","exp","700","1","1","IC","b","true"
"fixation-image-keyboard-release-original","4662","697894","0.0-23.0-1.178","","495.54499999794643","Stim/Stim-GB/NM_M.PNG","66","","","1","exp","400","2","1","C","b","true"
"fixation-image-keyboard-release-original","4663","700450","0.0-23.0-1.179","","552.0949999990407","Stim/Stim-GB/MN_M.PNG","66","","","1","exp","700","2","1","C","b","true"
"fixation-image-keyboard-release-original","4664","702958","0.0-23.0-1.180","","503.725000002305","Stim/Stim-GB/MM_I.PNG","86","","","2","exp","400","2","0","IC","v","true"
"fixation-image-keyboard-release-original","4665","705441","0.0-23.0-1.181","","473.8500000021886","Stim/Stim-GB/NI_M.PNG","66","","","1","exp","100","1","1","IC","b","true"
"fixation-image-keyboard-release-original","4666","708038","0.0-23.0-1.182","","585.8899999948917","Stim/Stim-BG/MM_M.PNG","66","","","2","exp","100","2","1","C","b","true"
"fixation-image-keyboard-release-original","4667","710550","0.0-23.0-1.183","","508.69499999680556","Stim/Stim-GB/NM_M.PNG","66","","","1","exp","700","2","1","C","b","true"
"fixation-image-keyboard-release-original","4668","713178","0.0-23.0-1.184","","623.5999999990454","Stim/Stim-BG/II_M.PNG","66","","","2","exp","700","1","1","IC","b","true"
"fixation-image-keyboard-release-original","4669","715654","0.0-23.0-1.185","","470.4600000040373","Stim/Stim-GB/MN_I.PNG","86","","","1","exp","700","2","0","IC","v","true"
"fixation-image-keyboard-release-original","4670","718166","0.0-23.0-1.186","","506.0049999955809","Stim/Stim-BG/NI_M.PNG","66","","","1","exp","100","1","1","IC","b","true"
"fixation-image-keyboard-release-original","4671","720741","0.0-23.0-1.187","","571.5149999960558","Stim/Stim-GB/MM_I.PNG","86","","","2","exp","100","2","0","IC","v","true"
"fixation-image-keyboard-release-original","4672","723530","0.0-23.0-1.188","","780.6800000034273","Stim/Stim-BG/II_M.PNG","66","","","2","exp","700","1","1","IC","b","true"
"fixation-image-keyboard-release-original","4673","726170","0.0-23.0-1.189","","631.3399999999674","Stim/Stim-GB/II_M.PNG","66","","","2","exp","400","1","1","IC","b","true"
"fixation-image-keyboard-release-original","4674","728669","0.0-23.0-1.190","","493.34999999706633","Stim/Stim-GB/II_I.PNG","86","","","2","exp","700","1","0","C","v","true"
"fixation-image-keyboard-release-original","4675","731229","0.0-23.0-1.191","","555.8749999981374","Stim/Stim-GB/IN_I.PNG","86","","","1","exp","100","1","0","C","v","true"
"call-function","4676","732232","0.0-24.0","","","","","","","","","","","","","",""
"survey-html-form","4677","737367","0.0-25.0","","5134.765000002575","","","{""hands2"":""Right""}","","","","","","","","",""
"html-keyboard-response","4678","758421","0.0-26.0","","21052.94000000134","<p><h1>This is the end of the experiment.</h1></p><p>Please <a href='Debrief.pdf' target='_blank'>Click Here</a> (this will open a new window) to read more about the study.</p><p>Press ENTER to end the experiment (you will be sent to Prolific - if something goes wrong, the completion code for this study is: 3F11CBBF).</p>","13","","","","","","","","","",""
"pavlovia","4679","758430","0.0-27.0","","","","","","","","","","","","","",""
