"trial_type","trial_index","time_elapsed","internal_node_id","value","rt","stimulus","key_press","responses","success","hand","test","gap","finger","cue","con","correct_response","correct"
"pavlovia","0","7","0.0-0.0","","","","","","","","","","","","","",""
"call-function","1","7","0.0-1.0","","","","","","","","","","","","","",""
"html-keyboard-response","2","5681","0.0-2.0","","5673.104999998031","<div class = 'my_window'><p><h1>Welcome!</h1><br><p><p>This experiment is adminterested by Carl Michael Galang (McMaster University), Dr. Emiel Cracco (Ghent University), Dr. Marcel Brass (Humboldt University of Berlin), & Dr. Sukhvinder Obhi (McMaster University).</p><p>The purpose of this study is to explore basic perceptual processing mechanisms.</p><p>Information gathered during this study will be written up for publication in an academic journal. While there are no direct benefits to you taking part in this study (other than learning more about the research topic and getting paid on Prolific), the results of this study will provide us with a better understanding of perceptual and sensory processes. To learn about this study, particularly in the terms of any associated risks or harms, how confidentiality and anonymity will be handled, withdrawal procedures, incentives that are promised, how to obtain information about the results, etc., please read the accompanying letter of information - <a href='LOI.pdf' target='_blank'>Click Here</a> (this will open a new window).</p><p>This study should take around 10min to complete.</p><p>If you have questions or need more information about the study itself, please contact me at: galangc@mcmaster.ca. This study has been reviewed by the McMaster University Research Ethics Board and received ethics clearance. If you have concerns or questions about your rights as a participant or about the way the study is conducted, please contact the McMaster Research Ethics Secretariat at ethicsoffice@mcmaster.ca.</p><br><p><h1>CONSENT</h1></p><p>I have read the information presented in the letter of information and I agree to participate in this study.</p><p>By pressing Enter, I consent to the above.<p>","13","","","","","","","","","",""
"survey-html-form","3","15850","0.0-3.0","","10166.67999999845","","","{""1"":""601a6f7e034be9279d063cae""}","","","","","","","","",""
"fullscreen","4","17773","0.0-4.0","","","","","","true","","","","","","","",""
"call-function","5","17774","0.0-5.0","","","","","","","","","","","","","",""
"html-keyboard-response","6","104298","0.0-6.0","","86517.6649999994","<div class = 'my_window'><h1>Instructions</h1><p>Your task in this experiment is to respond to the letters I or M as they appear on the screen. Unlike most experiments, your task will be to <strong><u>release</u></strong> keys (not push).</p><p>Before each trial starts, please ensure that you keep the <strong><u>V key</u></strong> and <strong><u>B key</u></strong> depressed with your <strong><u>right index finger</u></strong> on the <strong><u>V key</u></strong> and your <strong><u>right middle finger</u></strong> on the <strong><u>B key</u></strong> (see image below). Responses on this experiment will consist of lifting your <strong><u>right index finger</u></strong> to release the <strong><u>V key</u></strong> if you see the letter <strong><u>I</u></strong> or lifting your <strong><u>right middle finger</u></strong> to release the <strong><u>B key</u></strong> if you see the letter <strong><u>M</u></strong> as fast as you can. It is important that you <strong><u>only use your right hand</u></strong> to do the task.</p><p><img src='keyboard_img.png'></p><p>While you complete this task, there will be a couple of hands moving in the background. Ignore them and focus on the task.</p><p>Press ENTER to continue.</p></div>","13","","","","","","","","","",""
"html-keyboard-response","7","129441","0.0-7.0","","25142.495000000054","<div class = 'my_window'><h1>Practice</h1><p>You will first do a practice phase. In the practice phase, you will get feedback on your performance. The practice phase contains 10 trials, but will add an extra trial every time you respond incorrectly.</p><p><p>Before each trial starts, please ensure that you keep the <strong><u>V key</u></strong> and <strong><u>B key</u></strong> depressed with your <strong><u>right index finger</u></strong> on the <strong><u>V key</u></strong> and your <strong><u>right middle finger</u></strong> on the <strong><u>B key</u></strong> (see image below). Responses on this experiment will consist of lifting your <strong><u>right index finger</u></strong> to release the <strong><u>V key</u></strong> if you see the letter <strong><u>I</u></strong> or lifting your <strong><u>right middle finger</u></strong> to release the <strong><u>B key</u></strong> if you see the letter <strong><u>M</u></strong> as fast as you can. It is important that you <strong><u>only use your right hand</u></strong> to do the task.</p><p><img src='keyboard_img.png'></p><p>While you complete this task, there will be a couple of hands moving in the background. Ignore them and focus on the task.</p><p>This is a reaction time experiment, so please try to respond as fast as possible while at the same time minimizing mistakes.</p><p>Press ENTER to begin.</p></div>","13","","","","","","","","","",""
"fixation-image-keyboard-release-original","387","133593","0.0-8.0-1.0","","1046.8949999994948","Stim/Stim-GB/MN_M.PNG","66","","","1","exp","400","2","1","C","b","true"
"html-keyboard-response","388","134699","0.0-8.0-2.0","","null","<p> CORRECT </p>","null","","","","","","","","","",""
"fixation-image-keyboard-release-original","1166","140369","0.0-9.0-1.0","","458.135000000766","Stim/Stim-GB/IN_I.PNG","86","","","1","exp","400","1","0","C","v","true"
"html-keyboard-response","1167","141473","0.0-9.0-2.0","","null","<p> CORRECT </p>","null","","","","","","","","","",""
"fixation-image-keyboard-release-original","1775","146673","0.0-10.0-1.0","","941.979999999603","Stim/Stim-BG/MM_I.PNG","86","","","2","exp","400","2","0","IC","v","true"
"html-keyboard-response","1776","147776","0.0-10.0-2.0","","null","<p> CORRECT </p>","null","","","","","","","","","",""
"fixation-image-keyboard-release-original","1940","150169","0.0-11.0-1.0","","521.9449999967765","Stim/Stim-BG/NI_I.PNG","86","","","1","exp","700","1","0","C","v","true"
"html-keyboard-response","1941","151273","0.0-11.0-2.0","","null","<p> CORRECT </p>","null","","","","","","","","","",""
"fixation-image-keyboard-release-original","2309","154825","0.0-12.0-1.0","","593.3999999979278","Stim/Stim-BG/II_M.PNG","66","","","2","exp","700","1","1","IC","b","true"
"html-keyboard-response","2310","155929","0.0-12.0-2.0","","null","<p> CORRECT </p>","null","","","","","","","","","",""
"fixation-image-keyboard-release-original","2499","158561","0.0-13.0-1.0","","636.6950000010547","Stim/Stim-GB/NM_I.PNG","86","","","1","exp","700","2","0","IC","v","true"
"html-keyboard-response","2500","159664","0.0-13.0-2.0","","null","<p> CORRECT </p>","null","","","","","","","","","",""
"fixation-image-keyboard-release-original","2794","162857","0.0-14.0-1.0","","575.379999998404","Stim/Stim-GB/II_I.PNG","86","","","2","exp","100","1","0","C","v","true"
"html-keyboard-response","2795","163960","0.0-14.0-2.0","","null","<p> CORRECT </p>","null","","","","","","","","","",""
"fixation-image-keyboard-release-original","3555","176521","0.0-15.0-1.0","","394.61999999912223","Stim/Stim-GB/MM_M.PNG","66","","","2","exp","400","2","1","C","b","true"
"html-keyboard-response","3556","177639","0.0-15.0-2.0","","null","<p> CORRECT </p>","null","","","","","","","","","",""
"fixation-image-keyboard-release-original","3648","179673","0.0-16.0-1.0","","457.45999999780906","Stim/Stim-BG/MN_M.PNG","66","","","1","exp","700","2","1","C","b","true"
"html-keyboard-response","3649","180808","0.0-16.0-2.0","","null","<p> CORRECT </p>","null","","","","","","","","","",""
"fixation-image-keyboard-release-original","3822","183673","0.0-17.0-1.0","","576.6249999978754","Stim/Stim-BG/MM_I.PNG","86","","","2","exp","400","2","0","IC","v","true"
"html-keyboard-response","3823","184795","0.0-17.0-2.0","","null","<p> CORRECT </p>","null","","","","","","","","","",""
"call-function","3824","184801","0.0-18.0","","","","","","","","","","","","","",""
"survey-html-form","3825","191003","0.0-19.0","","6191.289999998844","","","{""hands"":""Right""}","","","","","","","","",""
"html-keyboard-response","3826","199403","0.0-20.0","","8397.035000001779","If you are using <strong><u>just</u></strong> your <strong></u>right hand</u></strong>, then good job! If not, please do so in the main part of the experiment.<br><br>Press Enter to continue","13","","","","","","","","","",""
"html-keyboard-response","3827","208546","0.0-21.0","","9141.790000001492","<div class = 'my_window'><h1>Main Trials</h1><p>Good Job! We will now begin the main trials. In the main trials, you will <strong>not</strong> get feedback. There are 192 trials overall. You will get a self-paced break every 48 trials.</p><p>Instructions Reminder: <p>Before each trial starts, please ensure that you keep the <strong><u>V key</u></strong> and <strong><u>B key</u></strong> depressed with your <strong><u>right index finger</u></strong> on the <strong><u>V key</u></strong> and your <strong><u>right middle finger</u></strong> on the <strong><u>B key</u></strong> (see image below). Responses on this experiment will consist of lifting your <strong><u>right index finger</u></strong> to release the <strong><u>V key</u></strong> if you see the letter <strong><u>I</u></strong> or lifting your <strong><u>right middle finger</u></strong> to release the <strong><u>B key</u></strong> if you see the letter <strong><u>M</u></strong> as fast as you can. It is important that you <strong><u>only use your right hand</u></strong> to do the task.</p><p><img src='keyboard_img.png'></p><p>While you complete this task, there will be a couple of hands moving in the background. Ignore them and focus on the task.</p><p>Remember: this is a reaction time experiment, so please try to respond as fast as possible while at the same time minimizing mistakes.</p><p>Press ENTER to begin.</p></div>","13","","","","","","","","","",""
"call-function","3828","208547","0.0-22.0","","","","","","","","","","","","","",""
"fixation-image-keyboard-release-original","4132","214553","0.0-23.0-1.0","","601.9750000014028","Stim/Stim-GB/II_M.PNG","66","","","2","exp","100","1","1","IC","b","true"
"fixation-image-keyboard-release-original","4240","219209","0.0-23.0-1.1","","577.4400000009337","Stim/Stim-GB/IN_M.PNG","66","","","1","exp","400","1","1","IC","b","true"
"fixation-image-keyboard-release-original","4431","222937","0.0-23.0-1.2","","400.3950000005716","Stim/Stim-BG/NM_M.PNG","66","","","1","exp","400","2","1","C","b","true"
"fixation-image-keyboard-release-original","4605","226489","0.0-23.0-1.3","","301.5450000020792","Stim/Stim-GB/NI_M.PNG","66","","","1","exp","400","1","1","IC","b","true"
"fixation-image-keyboard-release-original","4774","230034","0.0-23.0-1.4","","390.82499999858555","Stim/Stim-GB/MM_M.PNG","66","","","2","exp","700","2","1","C","b","true"
"fixation-image-keyboard-release-original","5057","234049","0.0-23.0-1.5","","359.52499999984866","Stim/Stim-GB/II_I.PNG","86","","","2","exp","100","1","0","C","v","true"
"fixation-image-keyboard-release-original","5191","237241","0.0-23.0-1.6","","319.5300000006682","Stim/Stim-GB/NM_M.PNG","66","","","1","exp","100","2","1","C","b","true"
"fixation-image-keyboard-release-original","5313","240489","0.0-23.0-1.7","","410.7899999980873","Stim/Stim-BG/MN_M.PNG","66","","","1","exp","400","2","1","C","b","true"
"fixation-image-keyboard-release-original","5497","243953","0.0-23.0-1.8","","331.58999999795924","Stim/Stim-BG/MM_M.PNG","66","","","2","exp","400","2","1","C","b","true"
"fixation-image-keyboard-release-original","5616","247233","0.0-23.0-1.9","","456.62499999889405","Stim/Stim-GB/II_I.PNG","86","","","2","exp","700","1","0","C","v","true"
"fixation-image-keyboard-release-original","5771","250537","0.0-23.0-1.10","","330.5849999997008","Stim/Stim-GB/NM_I.PNG","66","","","1","exp","400","2","0","IC","v","false"
"fixation-image-keyboard-release-original","5929","253937","0.0-23.0-1.11","","394.109999997454","Stim/Stim-GB/MM_I.PNG","86","","","2","exp","100","2","0","IC","v","true"
"fixation-image-keyboard-release-original","6078","257289","0.0-23.0-1.12","","427.3849999990489","Stim/Stim-GB/II_I.PNG","86","","","2","exp","400","1","0","C","v","true"
"fixation-image-keyboard-release-original","6249","260841","0.0-23.0-1.13","","409.47000000230037","Stim/Stim-GB/II_M.PNG","66","","","2","exp","400","1","1","IC","b","true"
"fixation-image-keyboard-release-original","6394","264233","0.0-23.0-1.14","","409.7249999976484","Stim/Stim-BG/MN_I.PNG","86","","","1","exp","700","2","0","IC","v","true"
"fixation-image-keyboard-release-original","6553","267825","0.0-23.0-1.15","","490.55500000028405","Stim/Stim-GB/MM_I.PNG","86","","","2","exp","400","2","0","IC","v","true"
"fixation-image-keyboard-release-original","6684","271121","0.0-23.0-1.16","","467.45000000006985","Stim/Stim-GB/NM_I.PNG","86","","","1","exp","100","2","0","IC","v","true"
"fixation-image-keyboard-release-original","6800","274177","0.0-23.0-1.17","","388.8600000027218","Stim/Stim-GB/MM_I.PNG","86","","","2","exp","700","2","0","IC","v","true"
"fixation-image-keyboard-release-original","6880","277049","0.0-23.0-1.18","","293.5749999997206","Stim/Stim-BG/MN_I.PNG","86","","","1","exp","100","2","0","IC","v","true"
"fixation-image-keyboard-release-original","6945","279953","0.0-23.0-1.19","","363.4700000002049","Stim/Stim-GB/MM_I.PNG","86","","","2","exp","400","2","0","IC","v","true"
"fixation-image-keyboard-release-original","7033","282865","0.0-23.0-1.20","","319.25500000221655","Stim/Stim-BG/IN_I.PNG","86","","","1","exp","100","1","0","C","v","true"
"fixation-image-keyboard-release-original","7144","285969","0.0-23.0-1.21","","378.420000000915","Stim/Stim-GB/II_M.PNG","66","","","2","exp","400","1","1","IC","b","true"
"fixation-image-keyboard-release-original","7276","289249","0.0-23.0-1.22","","364.0850000010105","Stim/Stim-GB/NI_I.PNG","86","","","1","exp","100","1","0","C","v","true"
"fixation-image-keyboard-release-original","7336","292057","0.0-23.0-1.23","","343.5200000022305","Stim/Stim-BG/MM_I.PNG","86","","","2","exp","100","2","0","IC","v","true"
"fixation-image-keyboard-release-original","7406","295545","0.0-23.0-1.24","","337.6399999979185","Stim/Stim-BG/MN_I.PNG","86","","","1","exp","100","2","0","IC","v","true"
"fixation-image-keyboard-release-original","7542","299009","0.0-23.0-1.25","","545.1149999971385","Stim/Stim-GB/IN_M.PNG","66","","","1","exp","700","1","1","IC","b","true"
"fixation-image-keyboard-release-original","7656","302193","0.0-23.0-1.26","","421.68499999755295","Stim/Stim-BG/II_M.PNG","66","","","2","exp","700","1","1","IC","b","true"
"fixation-image-keyboard-release-original","7790","305465","0.0-23.0-1.27","","410.520000001241","Stim/Stim-BG/MN_M.PNG","66","","","1","exp","400","2","1","C","b","true"
"fixation-image-keyboard-release-original","7828","308434","0.0-23.0-1.28","","424.989999999525","Stim/Stim-BG/II_I.PNG","86","","","2","exp","700","1","0","C","v","true"
"fixation-image-keyboard-release-original","7960","311745","0.0-23.0-1.29","","515.7099999996135","Stim/Stim-BG/II_I.PNG","86","","","2","exp","700","1","0","C","v","true"
"fixation-image-keyboard-release-original","8108","315449","0.0-23.0-1.30","","735.3699999985402","Stim/Stim-GB/NI_I.PNG","86","","","1","exp","400","1","0","C","v","true"
"fixation-image-keyboard-release-original","8254","318641","0.0-23.0-1.31","","409.56999999977415","Stim/Stim-GB/MN_M.PNG","66","","","1","exp","700","2","1","C","b","true"
"fixation-image-keyboard-release-original","8350","321985","0.0-23.0-1.32","","659.5349999988684","Stim/Stim-BG/MN_M.PNG","66","","","1","exp","700","2","1","C","b","true"
"fixation-image-keyboard-release-original","8465","325193","0.0-23.0-1.33","","415.6249999977881","Stim/Stim-BG/MM_I.PNG","86","","","2","exp","100","2","0","IC","v","true"
"fixation-image-keyboard-release-original","8594","328385","0.0-23.0-1.34","","408.500000001397","Stim/Stim-GB/MM_M.PNG","66","","","2","exp","100","2","1","C","b","true"
"fixation-image-keyboard-release-original","8667","331425","0.0-23.0-1.35","","477.5200000003679","Stim/Stim-BG/II_M.PNG","66","","","2","exp","700","1","1","IC","b","true"
"fixation-image-keyboard-release-original","8787","334697","0.0-23.0-1.36","","426.60500000056345","Stim/Stim-BG/NM_M.PNG","66","","","1","exp","700","2","1","C","b","true"
"fixation-image-keyboard-release-original","8934","337985","0.0-23.0-1.37","","393.46499999740627","Stim/Stim-GB/MM_I.PNG","86","","","2","exp","400","2","0","IC","v","true"
"fixation-image-keyboard-release-original","9042","341113","0.0-23.0-1.38","","444.4549999971059","Stim/Stim-GB/II_M.PNG","66","","","2","exp","400","1","1","IC","b","true"
"fixation-image-keyboard-release-original","9154","344289","0.0-23.0-1.39","","408.51499999914085","Stim/Stim-BG/II_I.PNG","86","","","2","exp","400","1","0","C","v","true"
"fixation-image-keyboard-release-original","9324","348177","0.0-23.0-1.40","","688.5099999999511","Stim/Stim-GB/MN_M.PNG","66","","","1","exp","100","2","1","C","b","true"
"fixation-image-keyboard-release-original","9400","351161","0.0-23.0-1.41","","376.6299999988405","Stim/Stim-GB/II_I.PNG","86","","","2","exp","100","1","0","C","v","true"
"fixation-image-keyboard-release-original","9508","354345","0.0-23.0-1.42","","439.7549999994226","Stim/Stim-BG/NM_I.PNG","86","","","1","exp","100","2","0","IC","v","true"
"fixation-image-keyboard-release-original","9634","357553","0.0-23.0-1.43","","412.3799999979092","Stim/Stim-BG/MN_M.PNG","66","","","1","exp","700","2","1","C","b","true"
"fixation-image-keyboard-release-original","9744","360633","0.0-23.0-1.44","","369.6349999991362","Stim/Stim-BG/NI_M.PNG","66","","","1","exp","700","1","1","IC","b","true"
"fixation-image-keyboard-release-original","9818","363737","0.0-23.0-1.45","","399.53999999852385","Stim/Stim-GB/MN_I.PNG","86","","","1","exp","400","2","0","IC","v","true"
"fixation-image-keyboard-release-original","9889","366937","0.0-23.0-1.46","","382.59499999909895","Stim/Stim-GB/NI_M.PNG","66","","","1","exp","400","1","1","IC","b","true"
"fixation-image-keyboard-release-original","9950","370073","0.0-23.0-1.47","","487.6250000015716","Stim/Stim-GB/II_M.PNG","66","","","2","exp","700","1","1","IC","b","true"
"html-keyboard-response","9951","391746","0.0-23.0-2.47-0.47","","20645.2649999992","Take a break. Feel free to start again by pressing Enter.","13","","","","","","","","","",""
"fixation-image-keyboard-release-original","10405","395713","0.0-23.0-1.48","","426.3250000003609","Stim/Stim-BG/II_I.PNG","86","","","2","exp","700","1","0","C","v","true"
"fixation-image-keyboard-release-original","10495","398553","0.0-23.0-1.49","","348.87000000162516","Stim/Stim-GB/IN_I.PNG","86","","","1","exp","100","1","0","C","v","true"
"fixation-image-keyboard-release-original","10589","401785","0.0-23.0-1.50","","753.3299999994924","Stim/Stim-GB/NM_M.PNG","66","","","1","exp","100","2","1","C","b","true"
"fixation-image-keyboard-release-original","10662","404513","0.0-23.0-1.51","","319.42500000150176","Stim/Stim-GB/IN_I.PNG","86","","","1","exp","400","1","0","C","v","true"
"fixation-image-keyboard-release-original","10721","407145","0.0-23.0-1.52","","323.47500000108266","Stim/Stim-BG/MM_I.PNG","66","","","2","exp","100","2","0","IC","v","false"
"fixation-image-keyboard-release-original","10806","410073","0.0-23.0-1.53","","457.0549999989453","Stim/Stim-BG/NI_I.PNG","86","","","1","exp","700","1","0","C","v","true"
"fixation-image-keyboard-release-original","10956","413321","0.0-23.0-1.54","","445.5099999977974","Stim/Stim-BG/MM_M.PNG","66","","","2","exp","400","2","1","C","b","true"
"fixation-image-keyboard-release-original","11098","416465","0.0-23.0-1.55","","381.8599999976577","Stim/Stim-BG/MM_I.PNG","86","","","2","exp","700","2","0","IC","v","true"
"fixation-image-keyboard-release-original","11170","419321","0.0-23.0-1.56","","488.2949999991688","Stim/Stim-GB/II_I.PNG","86","","","2","exp","700","1","0","C","v","true"
"fixation-image-keyboard-release-original","11268","422233","0.0-23.0-1.57","","393.3599999982398","Stim/Stim-BG/II_I.PNG","86","","","2","exp","400","1","0","C","v","true"
"fixation-image-keyboard-release-original","11367","425153","0.0-23.0-1.58","","340.13499999861233","Stim/Stim-BG/MM_I.PNG","86","","","2","exp","100","2","0","IC","v","true"
"fixation-image-keyboard-release-original","11484","428073","0.0-23.0-1.59","","266.1499999994994","Stim/Stim-GB/II_I.PNG","86","","","2","exp","400","1","0","C","v","true"
"fixation-image-keyboard-release-original","11548","430753","0.0-23.0-1.60","","336.8900000023423","Stim/Stim-BG/IN_I.PNG","86","","","1","exp","400","1","0","C","v","true"
"fixation-image-keyboard-release-original","11651","433761","0.0-23.0-1.61","","469.5449999999255","Stim/Stim-GB/MM_M.PNG","66","","","2","exp","700","2","1","C","b","true"
"fixation-image-keyboard-release-original","11751","436761","0.0-23.0-1.62","","455.710000002","Stim/Stim-BG/II_M.PNG","66","","","2","exp","100","1","1","IC","b","true"
"fixation-image-keyboard-release-original","11939","440305","0.0-23.0-1.63","","498.5899999992689","Stim/Stim-BG/MM_I.PNG","86","","","2","exp","700","2","0","IC","v","true"
"fixation-image-keyboard-release-original","11986","442914","0.0-23.0-1.64","","341.48500000080094","Stim/Stim-GB/MN_I.PNG","86","","","1","exp","100","2","0","IC","v","true"
"fixation-image-keyboard-release-original","12051","445737","0.0-23.0-1.65","","482.28500000183703","Stim/Stim-BG/II_M.PNG","66","","","2","exp","100","1","1","IC","b","true"
"fixation-image-keyboard-release-original","12382","450201","0.0-23.0-1.66","","395.1950000009383","Stim/Stim-BG/II_M.PNG","66","","","2","exp","700","1","1","IC","b","true"
"fixation-image-keyboard-release-original","12441","452945","0.0-23.0-1.67","","410.13999999995576","Stim/Stim-GB/NM_I.PNG","86","","","1","exp","100","2","0","IC","v","true"
"fixation-image-keyboard-release-original","12565","456033","0.0-23.0-1.68","","433.12000000150874","Stim/Stim-GB/MM_M.PNG","66","","","2","exp","700","2","1","C","b","true"
"fixation-image-keyboard-release-original","12566","458410","0.0-23.0-1.69","","374.0749999997206","Stim/Stim-BG/NI_M.PNG","66","","","1","exp","700","1","1","IC","b","true"
"fixation-image-keyboard-release-original","12570","460793","0.0-23.0-1.70","","362.78499999752967","Stim/Stim-GB/MN_I.PNG","86","","","1","exp","700","2","0","IC","v","true"
"fixation-image-keyboard-release-original","12571","463177","0.0-23.0-1.71","","378.97499999962747","Stim/Stim-BG/MM_M.PNG","66","","","2","exp","100","2","1","C","b","true"
"fixation-image-keyboard-release-original","12586","465601","0.0-23.0-1.72","","316.9850000013248","Stim/Stim-BG/MM_I.PNG","86","","","2","exp","400","2","0","IC","v","true"
"fixation-image-keyboard-release-original","12587","467929","0.0-23.0-1.73","","322.4399999999441","Stim/Stim-BG/NM_M.PNG","66","","","1","exp","100","2","1","C","b","true"
"fixation-image-keyboard-release-original","12588","470273","0.0-23.0-1.74","","340.4050000025891","Stim/Stim-BG/IN_I.PNG","86","","","1","exp","100","1","0","C","v","true"
"fixation-image-keyboard-release-original","12589","472586","0.0-23.0-1.75","","310.18500000215136","Stim/Stim-BG/NM_I.PNG","66","","","1","exp","400","2","0","IC","v","false"
"fixation-image-keyboard-release-original","12590","475073","0.0-23.0-1.76","","485.32500000146683","Stim/Stim-BG/IN_M.PNG","66","","","1","exp","700","1","1","IC","b","true"
"fixation-image-keyboard-release-original","13300","481969","0.0-23.0-1.77","","499.45500000106404","Stim/Stim-BG/II_M.PNG","66","","","2","exp","400","1","1","IC","b","true"
"fixation-image-keyboard-release-original","13301","484306","0.0-23.0-1.78","","332.0800000001327","Stim/Stim-BG/MN_M.PNG","86","","","1","exp","100","2","1","C","b","false"
"fixation-image-keyboard-release-original","13431","487353","0.0-23.0-1.79","","353.8800000024494","Stim/Stim-BG/NI_M.PNG","66","","","1","exp","400","1","1","IC","b","true"
"fixation-image-keyboard-release-original","13455","489865","0.0-23.0-1.80","","387.0050000005285","Stim/Stim-BG/IN_I.PNG","86","","","1","exp","700","1","0","C","v","true"
"fixation-image-keyboard-release-original","13469","492449","0.0-23.0-1.81","","506.4300000012736","Stim/Stim-GB/NM_I.PNG","86","","","1","exp","700","2","0","IC","v","true"
"fixation-image-keyboard-release-original","13511","495065","0.0-23.0-1.82","","391.75999999861233","Stim/Stim-GB/II_M.PNG","66","","","2","exp","400","1","1","IC","b","true"
"fixation-image-keyboard-release-original","13547","497641","0.0-23.0-1.83","","394.78000000235625","Stim/Stim-BG/IN_M.PNG","66","","","1","exp","700","1","1","IC","b","true"
"fixation-image-keyboard-release-original","13587","500306","0.0-23.0-1.84","","449.97000000148546","Stim/Stim-BG/MM_M.PNG","66","","","2","exp","400","2","1","C","b","true"
"fixation-image-keyboard-release-original","13647","503146","0.0-23.0-1.85","","468.73000000056345","Stim/Stim-BG/IN_M.PNG","66","","","1","exp","400","1","1","IC","b","true"
"fixation-image-keyboard-release-original","13725","505905","0.0-23.0-1.86","","352.9899999994086","Stim/Stim-GB/MM_M.PNG","66","","","2","exp","100","2","1","C","b","true"
"fixation-image-keyboard-release-original","13739","508329","0.0-23.0-1.87","","349.0249999994994","Stim/Stim-GB/MM_I.PNG","66","","","2","exp","700","2","0","IC","v","false"
"fixation-image-keyboard-release-original","13740","510777","0.0-23.0-1.88","","443.50499999924796","Stim/Stim-BG/II_I.PNG","86","","","2","exp","100","1","0","C","v","true"
"fixation-image-keyboard-release-original","13805","513505","0.0-23.0-1.89","","370.1550000004936","Stim/Stim-BG/MN_I.PNG","86","","","1","exp","400","2","0","IC","v","true"
"fixation-image-keyboard-release-original","13869","516257","0.0-23.0-1.90","","418.454999999085","Stim/Stim-BG/IN_M.PNG","66","","","1","exp","100","1","1","IC","b","true"
"fixation-image-keyboard-release-original","15104","526993","0.0-23.0-1.91","","535.9449999995995","Stim/Stim-BG/II_I.PNG","86","","","2","exp","100","1","0","C","v","true"
"fixation-image-keyboard-release-original","15168","529809","0.0-23.0-1.92","","480.9399999976158","Stim/Stim-GB/NM_I.PNG","86","","","1","exp","700","2","0","IC","v","true"
"fixation-image-keyboard-release-original","15254","532713","0.0-23.0-1.93","","439.89000000141095","Stim/Stim-BG/MM_I.PNG","86","","","2","exp","400","2","0","IC","v","true"
"fixation-image-keyboard-release-original","15349","535681","0.0-23.0-1.94","","440.5049999986077","Stim/Stim-BG/MM_M.PNG","66","","","2","exp","100","2","1","C","b","true"
"fixation-image-keyboard-release-original","15430","538593","0.0-23.0-1.95","","477.9899999994086","Stim/Stim-GB/IN_M.PNG","66","","","1","exp","700","1","1","IC","b","true"
"html-keyboard-response","15431","2059756","0.0-23.0-2.95-0.95","","1520158.4250000014","Take a break. Feel free to start again by pressing Enter.","13","","","","","","","","","",""
"fixation-image-keyboard-release-original","15752","2063251","0.0-23.0-1.96","","734.7950000001583","Stim/Stim-GB/NI_I.PNG","86","","","1","exp","400","1","0","C","v","true"
"fixation-image-keyboard-release-original","15753","2065611","0.0-23.0-1.97","","356.5500000005122","Stim/Stim-GB/IN_M.PNG","86","","","1","exp","100","1","1","IC","b","false"
"fixation-image-keyboard-release-original","15754","2068035","0.0-23.0-1.98","","420.259999999078","Stim/Stim-BG/MM_I.PNG","86","","","2","exp","700","2","0","IC","v","true"
"fixation-image-keyboard-release-original","15755","2070435","0.0-23.0-1.99","","395.9949999989476","Stim/Stim-BG/MN_I.PNG","86","","","1","exp","700","2","0","IC","v","true"
"fixation-image-keyboard-release-original","15756","2072795","0.0-23.0-1.100","","355.53000000072643","Stim/Stim-BG/II_M.PNG","66","","","2","exp","100","1","1","IC","b","true"
"fixation-image-keyboard-release-original","15757","2075291","0.0-23.0-1.101","","489.91499999840744","Stim/Stim-GB/IN_I.PNG","86","","","1","exp","700","1","0","C","v","true"
"fixation-image-keyboard-release-original","15758","2077963","0.0-23.0-1.102","","668.0200000011828","Stim/Stim-BG/NM_I.PNG","86","","","1","exp","700","2","0","IC","v","true"
"fixation-image-keyboard-release-original","15759","2080355","0.0-23.0-1.103","","388.11499999812804","Stim/Stim-GB/II_I.PNG","86","","","2","exp","400","1","0","C","v","true"
"fixation-image-keyboard-release-original","15760","2082827","0.0-23.0-1.104","","466.9849999991711","Stim/Stim-GB/MN_M.PNG","66","","","1","exp","400","2","1","C","b","true"
"fixation-image-keyboard-release-original","15761","2085347","0.0-23.0-1.105","","516.0150000010617","Stim/Stim-BG/NM_I.PNG","86","","","1","exp","700","2","0","IC","v","true"
"fixation-image-keyboard-release-original","15762","2087939","0.0-23.0-1.106","","588.6000000026543","Stim/Stim-BG/II_I.PNG","86","","","2","exp","100","1","0","C","v","true"
"fixation-image-keyboard-release-original","15763","2090427","0.0-23.0-1.107","","484.4600000032224","Stim/Stim-GB/II_M.PNG","66","","","2","exp","700","1","1","IC","b","true"
"fixation-image-keyboard-release-original","15764","2092843","0.0-23.0-1.108","","391.40000000037253","Stim/Stim-BG/II_I.PNG","86","","","2","exp","400","1","0","C","v","true"
"fixation-image-keyboard-release-original","15765","2095299","0.0-23.0-1.109","","448.589999999851","Stim/Stim-GB/MM_M.PNG","66","","","2","exp","400","2","1","C","b","true"
"fixation-image-keyboard-release-original","15766","2097787","0.0-23.0-1.110","","483.3249999973923","Stim/Stim-BG/NM_I.PNG","86","","","1","exp","400","2","0","IC","v","true"
"fixation-image-keyboard-release-original","15767","2100283","0.0-23.0-1.111","","491.20499999821186","Stim/Stim-GB/MM_M.PNG","66","","","2","exp","400","2","1","C","b","true"
"fixation-image-keyboard-release-original","15768","2102683","0.0-23.0-1.112","","395.7100000004284","Stim/Stim-BG/II_I.PNG","86","","","2","exp","700","1","0","C","v","true"
"fixation-image-keyboard-release-original","15769","2105235","0.0-23.0-1.113","","546.5599999986589","Stim/Stim-BG/IN_M.PNG","66","","","1","exp","100","1","1","IC","b","true"
"fixation-image-keyboard-release-original","15770","2107680","0.0-23.0-1.114","","441.9249999993481","Stim/Stim-GB/MM_I.PNG","86","","","2","exp","700","2","0","IC","v","true"
"fixation-image-keyboard-release-original","15771","2110123","0.0-23.0-1.115","","434.99000000115484","Stim/Stim-GB/IN_M.PNG","66","","","1","exp","400","1","1","IC","b","true"
"fixation-image-keyboard-release-original","15772","2112571","0.0-23.0-1.116","","444.5899999993853","Stim/Stim-BG/MN_M.PNG","66","","","1","exp","100","2","1","C","b","true"
"fixation-image-keyboard-release-original","15773","2115003","0.0-23.0-1.117","","428.75499999755993","Stim/Stim-GB/MM_I.PNG","86","","","2","exp","100","2","0","IC","v","true"
"fixation-image-keyboard-release-original","15774","2117507","0.0-23.0-1.118","","498.79499999945983","Stim/Stim-BG/NI_I.PNG","86","","","1","exp","100","1","0","C","v","true"
"fixation-image-keyboard-release-original","15775","2120099","0.0-23.0-1.119","","588.4499999992549","Stim/Stim-BG/NI_I.PNG","86","","","1","exp","100","1","0","C","v","true"
"fixation-image-keyboard-release-original","15812","2122723","0.0-23.0-1.120","","434.320000000298","Stim/Stim-BG/MM_I.PNG","86","","","2","exp","400","2","0","IC","v","true"
"fixation-image-keyboard-release-original","15826","2125219","0.0-23.0-1.121","","432.54499999945983","Stim/Stim-GB/NM_M.PNG","66","","","1","exp","400","2","1","C","b","true"
"fixation-image-keyboard-release-original","15827","2127883","0.0-23.0-1.122","","658.7549999966286","Stim/Stim-GB/NI_I.PNG","86","","","1","exp","700","1","0","C","v","true"
"fixation-image-keyboard-release-original","15828","2130339","0.0-23.0-1.123","","453.2700000018813","Stim/Stim-GB/II_M.PNG","66","","","2","exp","100","1","1","IC","b","true"
"fixation-image-keyboard-release-original","15829","2132867","0.0-23.0-1.124","","525.4749999982305","Stim/Stim-BG/MM_M.PNG","66","","","2","exp","700","2","1","C","b","true"
"fixation-image-keyboard-release-original","15836","2135315","0.0-23.0-1.125","","419.6400000001304","Stim/Stim-BG/NM_M.PNG","66","","","1","exp","100","2","1","C","b","true"
"fixation-image-keyboard-release-original","15837","2137715","0.0-23.0-1.126","","395.714999998454","Stim/Stim-BG/IN_I.PNG","86","","","1","exp","400","1","0","C","v","true"
"fixation-image-keyboard-release-original","17551","2150947","0.0-23.0-1.127","","473.84999999869615","Stim/Stim-BG/II_I.PNG","86","","","2","exp","400","1","0","C","v","true"
"fixation-image-keyboard-release-original","17552","2153331","0.0-23.0-1.128","","379.30000000074506","Stim/Stim-BG/MN_I.PNG","86","","","1","exp","400","2","0","IC","v","true"
"fixation-image-keyboard-release-original","17559","2155755","0.0-23.0-1.129","","397.0800000024028","Stim/Stim-GB/NI_M.PNG","66","","","1","exp","700","1","1","IC","b","true"
"fixation-image-keyboard-release-original","17567","2158155","0.0-23.0-1.130","","369.16500000003725","Stim/Stim-BG/MM_M.PNG","86","","","2","exp","100","2","1","C","b","false"
"fixation-image-keyboard-release-original","17578","2160611","0.0-23.0-1.131","","390.9249999993481","Stim/Stim-GB/MM_M.PNG","66","","","2","exp","400","2","1","C","b","true"
"fixation-image-keyboard-release-original","17596","2163067","0.0-23.0-1.132","","361.2250000005588","Stim/Stim-BG/MM_M.PNG","66","","","2","exp","700","2","1","C","b","true"
"fixation-image-keyboard-release-original","17616","2165611","0.0-23.0-1.133","","440.63499999884516","Stim/Stim-BG/NM_I.PNG","86","","","1","exp","100","2","0","IC","v","true"
"fixation-image-keyboard-release-original","17617","2168043","0.0-23.0-1.134","","426.6399999978021","Stim/Stim-GB/NM_M.PNG","66","","","1","exp","400","2","1","C","b","true"
"fixation-image-keyboard-release-original","17618","2170683","0.0-23.0-1.135","","636.5799999986775","Stim/Stim-GB/MN_M.PNG","66","","","1","exp","700","2","1","C","b","true"
"fixation-image-keyboard-release-original","18364","2177715","0.0-23.0-1.136","","409.4599999990314","Stim/Stim-GB/MN_I.PNG","86","","","1","exp","700","2","0","IC","v","true"
"fixation-image-keyboard-release-original","18373","2180131","0.0-23.0-1.137","","375.0599999986589","Stim/Stim-GB/II_M.PNG","66","","","2","exp","700","1","1","IC","b","true"
"fixation-image-keyboard-release-original","18374","2182499","0.0-23.0-1.138","","363.7949999975972","Stim/Stim-BG/II_M.PNG","66","","","2","exp","400","1","1","IC","b","true"
"fixation-image-keyboard-release-original","18396","2185099","0.0-23.0-1.139","","486.6899999980815","Stim/Stim-BG/MM_I.PNG","86","","","2","exp","400","2","0","IC","v","true"
"fixation-image-keyboard-release-original","18507","2188203","0.0-23.0-1.140","","421.8449999974109","Stim/Stim-BG/NI_M.PNG","66","","","1","exp","400","1","1","IC","b","true"
"fixation-image-keyboard-release-original","18508","2190595","0.0-23.0-1.141","","389.94000000087544","Stim/Stim-BG/NM_M.PNG","66","","","1","exp","400","2","1","C","b","true"
"fixation-image-keyboard-release-original","18509","2192955","0.0-23.0-1.142","","357.29999999981374","Stim/Stim-GB/MN_I.PNG","86","","","1","exp","400","2","0","IC","v","true"
"fixation-image-keyboard-release-original","18614","2197803","0.0-23.0-1.143","","447.29500000178814","Stim/Stim-GB/MN_M.PNG","66","","","1","exp","400","2","1","C","b","true"
"html-keyboard-response","18615","4316470","0.0-23.0-2.143-0.143","","2117665.775000001","Take a break. Feel free to start again by pressing Enter.","13","","","","","","","","","",""
"fixation-image-keyboard-release-original","18661","4318361","0.0-23.0-1.144","","402.57000000216067","Stim/Stim-GB/NM_I.PNG","66","","","1","exp","400","2","0","IC","v","false"
"fixation-image-keyboard-release-original","18699","4320972","0.0-23.0-1.145","","410.5949999978766","Stim/Stim-GB/MM_M.PNG","66","","","2","exp","100","2","1","C","b","true"
"fixation-image-keyboard-release-original","18721","4323508","0.0-23.0-1.146","","401.9150000018999","Stim/Stim-BG/II_M.PNG","66","","","2","exp","700","1","1","IC","b","true"
"fixation-image-keyboard-release-original","18756","4326069","0.0-23.0-1.147","","363.0400000009686","Stim/Stim-GB/IN_I.PNG","86","","","1","exp","400","1","0","C","v","true"
"fixation-image-keyboard-release-original","18766","4328556","0.0-23.0-1.148","","410.3100000033155","Stim/Stim-BG/NI_M.PNG","66","","","1","exp","100","1","1","IC","b","true"
"fixation-image-keyboard-release-original","18785","4331092","0.0-23.0-1.149","","437.32000000122935","Stim/Stim-GB/II_M.PNG","66","","","2","exp","100","1","1","IC","b","true"
"fixation-image-keyboard-release-original","18786","4333500","0.0-23.0-1.150","","403.7649999987334","Stim/Stim-GB/MM_I.PNG","86","","","2","exp","100","2","0","IC","v","true"
"fixation-image-keyboard-release-original","18787","4336052","0.0-23.0-1.151","","548.7549999998882","Stim/Stim-GB/MM_I.PNG","86","","","2","exp","100","2","0","IC","v","true"
"fixation-image-keyboard-release-original","18788","4338540","0.0-23.0-1.152","","483.65000000130385","Stim/Stim-GB/IN_I.PNG","86","","","1","exp","100","1","0","C","v","true"
"fixation-image-keyboard-release-original","19034","4343900","0.0-23.0-1.153","","425.64499999955297","Stim/Stim-GB/II_I.PNG","86","","","2","exp","100","1","0","C","v","true"
"fixation-image-keyboard-release-original","19035","4346676","0.0-23.0-1.154","","771.730000000447","Stim/Stim-BG/II_M.PNG","66","","","2","exp","400","1","1","IC","b","true"
"fixation-image-keyboard-release-original","19055","4349180","0.0-23.0-1.155","","398.5800000010058","Stim/Stim-GB/MM_I.PNG","86","","","2","exp","700","2","0","IC","v","true"
"fixation-image-keyboard-release-original","19056","4351636","0.0-23.0-1.156","","452.7949999971315","Stim/Stim-GB/II_M.PNG","66","","","2","exp","700","1","1","IC","b","true"
"fixation-image-keyboard-release-original","19057","4354116","0.0-23.0-1.157","","473.2449999973178","Stim/Stim-BG/NI_I.PNG","86","","","1","exp","400","1","0","C","v","true"
"fixation-image-keyboard-release-original","19073","4356588","0.0-23.0-1.158","","392.1499999994412","Stim/Stim-BG/IN_I.PNG","86","","","1","exp","700","1","0","C","v","true"
"fixation-image-keyboard-release-original","19100","4359212","0.0-23.0-1.159","","483.3349999971688","Stim/Stim-BG/NI_I.PNG","86","","","1","exp","700","1","0","C","v","true"
"fixation-image-keyboard-release-original","19101","4361588","0.0-23.0-1.160","","371.64499999955297","Stim/Stim-GB/MN_I.PNG","86","","","1","exp","100","2","0","IC","v","true"
"fixation-image-keyboard-release-original","19102","4364052","0.0-23.0-1.161","","460.06999999750406","Stim/Stim-BG/MM_M.PNG","66","","","2","exp","700","2","1","C","b","true"
"fixation-image-keyboard-release-original","19103","4366484","0.0-23.0-1.162","","427.5849999971688","Stim/Stim-BG/MM_I.PNG","86","","","2","exp","700","2","0","IC","v","true"
"fixation-image-keyboard-release-original","19115","4368908","0.0-23.0-1.163","","369.5750000011176","Stim/Stim-GB/NI_M.PNG","66","","","1","exp","700","1","1","IC","b","true"
"fixation-image-keyboard-release-original","19120","4371285","0.0-23.0-1.164","","357.1450000014156","Stim/Stim-GB/MM_M.PNG","86","","","2","exp","400","2","1","C","b","false"
"fixation-image-keyboard-release-original","19121","4373620","0.0-23.0-1.165","","331.1900000004098","Stim/Stim-GB/II_I.PNG","86","","","2","exp","700","1","0","C","v","true"
"fixation-image-keyboard-release-original","19131","4376141","0.0-23.0-1.166","","473.5900000007823","Stim/Stim-GB/II_M.PNG","66","","","2","exp","100","1","1","IC","b","true"
"fixation-image-keyboard-release-original","19159","4378725","0.0-23.0-1.167","","434.16000000108033","Stim/Stim-GB/II_I.PNG","86","","","2","exp","100","1","0","C","v","true"
"fixation-image-keyboard-release-original","19160","4381125","0.0-23.0-1.168","","396.6849999995902","Stim/Stim-BG/MM_M.PNG","66","","","2","exp","100","2","1","C","b","true"
"fixation-image-keyboard-release-original","19161","4383557","0.0-23.0-1.169","","427.76500000059605","Stim/Stim-GB/MM_M.PNG","66","","","2","exp","700","2","1","C","b","true"
"fixation-image-keyboard-release-original","19618","4388965","0.0-23.0-1.170","","477.7800000011921","Stim/Stim-GB/MM_M.PNG","66","","","2","exp","100","2","1","C","b","true"
"fixation-image-keyboard-release-original","19647","4391581","0.0-23.0-1.171","","473.035000002943","Stim/Stim-BG/IN_M.PNG","66","","","1","exp","400","1","1","IC","b","true"
"fixation-image-keyboard-release-original","19648","4393981","0.0-23.0-1.172","","391.44999999925494","Stim/Stim-GB/NM_M.PNG","66","","","1","exp","700","2","1","C","b","true"
"fixation-image-keyboard-release-original","19667","4396437","0.0-23.0-1.173","","363.18999999947846","Stim/Stim-BG/II_M.PNG","66","","","2","exp","400","1","1","IC","b","true"
"fixation-image-keyboard-release-original","19682","4398933","0.0-23.0-1.174","","426.45000000298023","Stim/Stim-BG/NI_I.PNG","86","","","1","exp","400","1","0","C","v","true"
"fixation-image-keyboard-release-original","19689","4401581","0.0-23.0-1.175","","616.6200000001118","Stim/Stim-GB/MN_M.PNG","66","","","1","exp","100","2","1","C","b","true"
"fixation-image-keyboard-release-original","20078","4413589","0.0-23.0-1.176","","352.37999999988824","Stim/Stim-GB/IN_I.PNG","86","","","1","exp","700","1","0","C","v","true"
"fixation-image-keyboard-release-original","20088","4416197","0.0-23.0-1.177","","547.8149999976158","Stim/Stim-GB/II_I.PNG","86","","","2","exp","700","1","0","C","v","true"
"fixation-image-keyboard-release-original","20097","4418645","0.0-23.0-1.178","","407.4199999989942","Stim/Stim-GB/IN_M.PNG","66","","","1","exp","100","1","1","IC","b","true"
"fixation-image-keyboard-release-original","20098","4421125","0.0-23.0-1.179","","474.16500000003725","Stim/Stim-GB/NI_I.PNG","86","","","1","exp","700","1","0","C","v","true"
"fixation-image-keyboard-release-original","20099","4423685","0.0-23.0-1.180","","556.0999999977648","Stim/Stim-BG/MM_M.PNG","66","","","2","exp","700","2","1","C","b","true"
"fixation-image-keyboard-release-original","20106","4426133","0.0-23.0-1.181","","416.9400000022724","Stim/Stim-BG/II_I.PNG","86","","","2","exp","100","1","0","C","v","true"
"fixation-image-keyboard-release-original","20107","4428597","0.0-23.0-1.182","","460.445000000298","Stim/Stim-GB/NI_M.PNG","66","","","1","exp","100","1","1","IC","b","true"
"fixation-image-keyboard-release-original","20111","4431077","0.0-23.0-1.183","","469.73000000044703","Stim/Stim-GB/NI_I.PNG","86","","","1","exp","100","1","0","C","v","true"
"fixation-image-keyboard-release-original","20112","4433525","0.0-23.0-1.184","","441.05499999877065","Stim/Stim-GB/II_I.PNG","86","","","2","exp","400","1","0","C","v","true"
"fixation-image-keyboard-release-original","20113","4435973","0.0-23.0-1.185","","441.38000000081956","Stim/Stim-GB/MM_I.PNG","86","","","2","exp","400","2","0","IC","v","true"
"fixation-image-keyboard-release-original","20114","4438437","0.0-23.0-1.186","","459.91500000376254","Stim/Stim-BG/II_M.PNG","66","","","2","exp","100","1","1","IC","b","true"
"fixation-image-keyboard-release-original","20115","4440845","0.0-23.0-1.187","","404.37999999988824","Stim/Stim-GB/NI_M.PNG","66","","","1","exp","100","1","1","IC","b","true"
"fixation-image-keyboard-release-original","20116","4443285","0.0-23.0-1.188","","437.339999999851","Stim/Stim-GB/NM_M.PNG","66","","","1","exp","700","2","1","C","b","true"
"fixation-image-keyboard-release-original","20265","4446573","0.0-23.0-1.189","","425.38499999884516","Stim/Stim-BG/NI_M.PNG","66","","","1","exp","100","1","1","IC","b","true"
"fixation-image-keyboard-release-original","20275","4449045","0.0-23.0-1.190","","423.49999999720603","Stim/Stim-BG/MM_M.PNG","66","","","2","exp","400","2","1","C","b","true"
"fixation-image-keyboard-release-original","20276","4451413","0.0-23.0-1.191","","362.3999999985099","Stim/Stim-BG/NM_M.PNG","66","","","1","exp","700","2","1","C","b","true"
"call-function","20277","4452485","0.0-24.0","","","","","","","","","","","","","",""
"survey-html-form","20278","4461752","0.0-25.0","","8623.550000000745","","","{""hands2"":""Right""}","","","","","","","","",""
