"trial_type","trial_index","time_elapsed","internal_node_id","value","rt","stimulus","key_press","responses","success","hand","test","gap","finger","cue","con","correct_response","correct"
"pavlovia","0","2","0.0-0.0","","","","","","","","","","","","","",""
"call-function","1","3","0.0-1.0","","","","","","","","","","","","","",""
"html-keyboard-response","2","2994","0.0-2.0","","2990.929999999935","<div class = 'my_window'><p><h1>Welcome!</h1><br><p><p>This experiment is adminterested by Carl Michael Galang (McMaster University), Dr. Emiel Cracco (Ghent University), Dr. Marcel Brass (Humboldt University of Berlin), & Dr. Sukhvinder Obhi (McMaster University).</p><p>The purpose of this study is to explore basic perceptual processing mechanisms.</p><p>Information gathered during this study will be written up for publication in an academic journal. While there are no direct benefits to you taking part in this study (other than learning more about the research topic and getting paid on Prolific), the results of this study will provide us with a better understanding of perceptual and sensory processes. To learn about this study, particularly in the terms of any associated risks or harms, how confidentiality and anonymity will be handled, withdrawal procedures, incentives that are promised, how to obtain information about the results, etc., please read the accompanying letter of information - <a href='LOI.pdf' target='_blank'>Click Here</a> (this will open a new window).</p><p>This study should take around 10min to complete.</p><p>If you have questions or need more information about the study itself, please contact me at: galangc@mcmaster.ca. This study has been reviewed by the McMaster University Research Ethics Board and received ethics clearance. If you have concerns or questions about your rights as a participant or about the way the study is conducted, please contact the McMaster Research Ethics Secretariat at ethicsoffice@mcmaster.ca.</p><br><p><h1>CONSENT</h1></p><p>I have read the information presented in the letter of information and I agree to participate in this study.</p><p>By pressing Enter, I consent to the above.<p>","13","","","","","","","","","",""
"survey-html-form","3","7158","0.0-3.0","","4163.144999998622","","","{""1"":""5f5b7da324ea690ab36f58a5""}","","","","","","","","",""
"fullscreen","4","10380","0.0-4.0","","","","","","true","","","","","","","",""
"call-function","5","10381","0.0-5.0","","","","","","","","","","","","","",""
"html-keyboard-response","6","49626","0.0-6.0","","39243.210000000545","<div class = 'my_window'><h1>Instructions</h1><p>Your task in this experiment is to respond to the letters I or M as they appear on the screen. Unlike most experiments, your task will be to <strong><u>release</u></strong> keys (not push).</p><p>Before each trial starts, please ensure that you keep the <strong><u>V key</u></strong> and <strong><u>B key</u></strong> depressed with your <strong><u>right index finger</u></strong> on the <strong><u>V key</u></strong> and your <strong><u>right middle finger</u></strong> on the <strong><u>B key</u></strong> (see image below). Responses on this experiment will consist of lifting your <strong><u>right index finger</u></strong> to release the <strong><u>V key</u></strong> if you see the letter <strong><u>I</u></strong> or lifting your <strong><u>right middle finger</u></strong> to release the <strong><u>B key</u></strong> if you see the letter <strong><u>M</u></strong> as fast as you can. It is important that you <strong><u>only use your right hand</u></strong> to do the task.</p><p><img src='keyboard_img.png'></p><p>While you complete this task, there will be a couple of hands moving in the background. Ignore them and focus on the task.</p><p>Press ENTER to continue.</p></div>","13","","","","","","","","","",""
"html-keyboard-response","7","52121","0.0-7.0","","2494.779999997263","<div class = 'my_window'><h1>Practice</h1><p>You will first do a practice phase. In the practice phase, you will get feedback on your performance. The practice phase contains 10 trials, but will add an extra trial every time you respond incorrectly.</p><p><p>Before each trial starts, please ensure that you keep the <strong><u>V key</u></strong> and <strong><u>B key</u></strong> depressed with your <strong><u>right index finger</u></strong> on the <strong><u>V key</u></strong> and your <strong><u>right middle finger</u></strong> on the <strong><u>B key</u></strong> (see image below). Responses on this experiment will consist of lifting your <strong><u>right index finger</u></strong> to release the <strong><u>V key</u></strong> if you see the letter <strong><u>I</u></strong> or lifting your <strong><u>right middle finger</u></strong> to release the <strong><u>B key</u></strong> if you see the letter <strong><u>M</u></strong> as fast as you can. It is important that you <strong><u>only use your right hand</u></strong> to do the task.</p><p><img src='keyboard_img.png'></p><p>While you complete this task, there will be a couple of hands moving in the background. Ignore them and focus on the task.</p><p>This is a reaction time experiment, so please try to respond as fast as possible while at the same time minimizing mistakes.</p><p>Press ENTER to begin.</p></div>","13","","","","","","","","","",""
"fixation-image-keyboard-release-original","1414","60817","0.0-8.0-1.0","","683.9450000006764","Stim/Stim-BG/MN_I.PNG","86","","","1","exp","400","2","0","IC","v","true"
"html-keyboard-response","1415","61940","0.0-8.0-2.0","","null","<p> CORRECT </p>","null","","","","","","","","","",""
"fixation-image-keyboard-release-original","3163","72217","0.0-9.0-1.0","","534.7299999993993","Stim/Stim-BG/NM_I.PNG","66","","","1","exp","700","2","0","IC","v","false"
"html-keyboard-response","3164","73329","0.0-9.0-2.0","","null","<p> INCORRECT </p>","null","","","","","","","","","",""
"fixation-image-keyboard-release-original","4469","81465","0.0-9.1-1.1","","678.10499999905","Stim/Stim-GB/II_I.PNG","86","","","2","exp","700","1","0","C","v","true"
"html-keyboard-response","4470","82567","0.0-9.1-2.1","","null","<p> CORRECT </p>","null","","","","","","","","","",""
"fixation-image-keyboard-release-original","5437","88761","0.0-10.0-1.0","","413.98499999922933","Stim/Stim-BG/IN_M.PNG","86","","","1","exp","400","1","1","IC","b","false"
"html-keyboard-response","5438","89885","0.0-10.0-2.0","","null","<p> INCORRECT </p>","null","","","","","","","","","",""
"fixation-image-keyboard-release-original","7790","103065","0.0-10.1-1.1","","458.91000000119675","Stim/Stim-GB/NM_I.PNG","86","","","1","exp","700","2","0","IC","v","true"
"html-keyboard-response","7791","104175","0.0-10.1-2.1","","null","<p> CORRECT </p>","null","","","","","","","","","",""
"fixation-image-keyboard-release-original","8283","108281","0.0-11.0-1.0","","655.8249999980035","Stim/Stim-BG/II_I.PNG","86","","","2","exp","400","1","0","C","v","true"
"html-keyboard-response","8284","109398","0.0-11.0-2.0","","null","<p> CORRECT </p>","null","","","","","","","","","",""
"fixation-image-keyboard-release-original","9719","118114","0.0-12.0-1.0","","580.3550000018731","Stim/Stim-BG/MM_M.PNG","86","","","2","exp","400","2","1","C","b","false"
"html-keyboard-response","9720","119231","0.0-12.0-2.0","","null","<p> INCORRECT </p>","null","","","","","","","","","",""
"fixation-image-keyboard-release-original","10695","126274","0.0-12.1-1.1","","1166.6999999979453","Stim/Stim-GB/II_M.PNG","86","","","2","exp","400","1","1","IC","b","false"
"html-keyboard-response","10696","127387","0.0-12.1-2.1","","null","<p> INCORRECT </p>","null","","","","","","","","","",""
"fixation-image-keyboard-release-original","11378","132226","0.0-12.2-1.2","","425.77499999970314","Stim/Stim-BG/IN_I.PNG","86","","","1","exp","100","1","0","C","v","true"
"html-keyboard-response","11379","133344","0.0-12.2-2.2","","null","<p> CORRECT </p>","null","","","","","","","","","",""
"fixation-image-keyboard-release-original","11636","136113","0.0-13.0-1.0","","506.62499999816646","Stim/Stim-GB/MM_I.PNG","86","","","2","exp","400","2","0","IC","v","true"
"html-keyboard-response","11637","137229","0.0-13.0-2.0","","null","<p> CORRECT </p>","null","","","","","","","","","",""
"fixation-image-keyboard-release-original","12115","141017","0.0-14.0-1.0","","465.10500000294996","Stim/Stim-GB/MN_I.PNG","86","","","1","exp","100","2","0","IC","v","true"
"html-keyboard-response","12116","142140","0.0-14.0-2.0","","null","<p> CORRECT </p>","null","","","","","","","","","",""
"fixation-image-keyboard-release-original","12321","144586","0.0-15.0-1.0","","424.93499999909545","Stim/Stim-BG/NM_M.PNG","66","","","1","exp","700","2","1","C","b","true"
"html-keyboard-response","12322","145701","0.0-15.0-2.0","","null","<p> CORRECT </p>","null","","","","","","","","","",""
"fixation-image-keyboard-release-original","12412","147626","0.0-16.0-1.0","","491.35999999998603","Stim/Stim-GB/MM_I.PNG","86","","","2","exp","700","2","0","IC","v","true"
"html-keyboard-response","12413","148757","0.0-16.0-2.0","","null","<p> CORRECT </p>","null","","","","","","","","","",""
"fixation-image-keyboard-release-original","12539","150802","0.0-17.0-1.0","","403.72000000206754","Stim/Stim-BG/MM_M.PNG","86","","","2","exp","400","2","1","C","b","false"
"html-keyboard-response","12540","151911","0.0-17.0-2.0","","null","<p> INCORRECT </p>","null","","","","","","","","","",""
"fixation-image-keyboard-release-original","13848","159794","0.0-17.1-1.1","","370.05000000135624","Stim/Stim-GB/MM_I.PNG","66","","","2","exp","100","2","0","IC","v","false"
"html-keyboard-response","13849","160903","0.0-17.1-2.1","","null","<p> INCORRECT </p>","null","","","","","","","","","",""
"fixation-image-keyboard-release-original","14756","166953","0.0-17.2-1.2","","532.7500000021246","Stim/Stim-GB/II_I.PNG","86","","","2","exp","400","1","0","C","v","true"
"html-keyboard-response","14757","168069","0.0-17.2-2.2","","null","<p> CORRECT </p>","null","","","","","","","","","",""
"call-function","14758","168070","0.0-18.0","","","","","","","","","","","","","",""
"survey-html-form","14759","176564","0.0-19.0","","8491.435000003548","","","{""hands"":""Both""}","","","","","","","","",""
"html-keyboard-response","14760","181234","0.0-20.0","","4669.659999999567","If you are using <strong><u>just</u></strong> your <strong></u>right hand</u></strong>, then good job! If not, please do so in the main part of the experiment.<br><br>Press Enter to continue","13","","","","","","","","","",""
"html-keyboard-response","14761","242586","0.0-21.0","","61350.954999998066","<div class = 'my_window'><h1>Main Trials</h1><p>Good Job! We will now begin the main trials. In the main trials, you will <strong>not</strong> get feedback. There are 192 trials overall. You will get a self-paced break every 48 trials.</p><p>Instructions Reminder: <p>Before each trial starts, please ensure that you keep the <strong><u>V key</u></strong> and <strong><u>B key</u></strong> depressed with your <strong><u>right index finger</u></strong> on the <strong><u>V key</u></strong> and your <strong><u>right middle finger</u></strong> on the <strong><u>B key</u></strong> (see image below). Responses on this experiment will consist of lifting your <strong><u>right index finger</u></strong> to release the <strong><u>V key</u></strong> if you see the letter <strong><u>I</u></strong> or lifting your <strong><u>right middle finger</u></strong> to release the <strong><u>B key</u></strong> if you see the letter <strong><u>M</u></strong> as fast as you can. It is important that you <strong><u>only use your right hand</u></strong> to do the task.</p><p><img src='keyboard_img.png'></p><p>While you complete this task, there will be a couple of hands moving in the background. Ignore them and focus on the task.</p><p>Remember: this is a reaction time experiment, so please try to respond as fast as possible while at the same time minimizing mistakes.</p><p>Press ENTER to begin.</p></div>","13","","","","","","","","","",""
"call-function","14762","242586","0.0-22.0","","","","","","","","","","","","","",""
"fixation-image-keyboard-release-original","15011","245297","0.0-23.0-1.0","","491.5450000007695","Stim/Stim-BG/NM_I.PNG","66","","","1","exp","700","2","0","IC","v","false"
"fixation-image-keyboard-release-original","15249","249025","0.0-23.0-1.1","","552.1600000029139","Stim/Stim-GB/II_M.PNG","86","","","2","exp","700","1","1","IC","b","false"
"fixation-image-keyboard-release-original","15550","253401","0.0-23.0-1.2","","866.8149999975867","Stim/Stim-GB/II_M.PNG","66","","","2","exp","400","1","1","IC","b","true"
"fixation-image-keyboard-release-original","15756","256961","0.0-23.0-1.3","","522.1449999990291","Stim/Stim-GB/MN_M.PNG","86","","","1","exp","400","2","1","C","b","false"
"fixation-image-keyboard-release-original","15837","259937","0.0-23.0-1.4","","570.5600000001141","Stim/Stim-BG/II_I.PNG","86","","","2","exp","700","1","0","C","v","true"
"fixation-image-keyboard-release-original","16007","263345","0.0-23.0-1.5","","561.1849999986589","Stim/Stim-GB/IN_M.PNG","86","","","1","exp","400","1","1","IC","b","false"
"fixation-image-keyboard-release-original","16459","268041","0.0-23.0-1.6","","457.9550000016461","Stim/Stim-BG/II_M.PNG","66","","","2","exp","100","1","1","IC","b","true"
"fixation-image-keyboard-release-original","16480","270769","0.0-23.0-1.7","","618.1300000025658","Stim/Stim-GB/NI_M.PNG","66","","","1","exp","700","1","1","IC","b","true"
"fixation-image-keyboard-release-original","16655","274257","0.0-23.0-1.8","","629.2199999988661","Stim/Stim-BG/II_I.PNG","86","","","2","exp","700","1","0","C","v","true"
"fixation-image-keyboard-release-original","16779","277321","0.0-23.0-1.9","","444.8899999988498","Stim/Stim-BG/II_I.PNG","86","","","2","exp","100","1","0","C","v","true"
"fixation-image-keyboard-release-original","16851","280513","0.0-23.0-1.10","","837.7299999992829","Stim/Stim-GB/MM_M.PNG","66","","","2","exp","100","2","1","C","b","true"
"fixation-image-keyboard-release-original","16877","283273","0.0-23.0-1.11","","624.980000000447","Stim/Stim-GB/IN_M.PNG","86","","","1","exp","400","1","1","IC","b","false"
"fixation-image-keyboard-release-original","17043","286809","0.0-23.0-1.12","","686.310000000929","Stim/Stim-GB/II_I.PNG","66","","","2","exp","400","1","0","C","v","false"
"fixation-image-keyboard-release-original","17340","291041","0.0-23.0-1.13","","766.285000001546","Stim/Stim-BG/NM_I.PNG","66","","","1","exp","400","2","0","IC","v","false"
"fixation-image-keyboard-release-original","17529","294721","0.0-23.0-1.14","","750.2649999987916","Stim/Stim-BG/MM_M.PNG","66","","","2","exp","400","2","1","C","b","true"
"fixation-image-keyboard-release-original","33114","375306","0.0-23.0-1.15","","854.7500000022119","Stim/Stim-BG/II_M.PNG","66","","","2","exp","700","1","1","IC","b","true"
"fixation-image-keyboard-release-original","33251","379281","0.0-23.0-1.16","","1291.5300000022398","Stim/Stim-GB/MN_I.PNG","66","","","1","exp","400","2","0","IC","v","false"
"fixation-image-keyboard-release-original","33252","381985","0.0-23.0-1.17","","685.0549999981304","Stim/Stim-GB/NM_I.PNG","66","","","1","exp","100","2","0","IC","v","false"
"fixation-image-keyboard-release-original","33253","384561","0.0-23.0-1.18","","549.9449999987846","Stim/Stim-GB/II_M.PNG","86","","","2","exp","100","1","1","IC","b","false"
"fixation-image-keyboard-release-original","33356","387649","0.0-23.0-1.19","","576.0150000024005","Stim/Stim-GB/MM_I.PNG","66","","","2","exp","700","2","0","IC","v","false"
"fixation-image-keyboard-release-original","33377","390249","0.0-23.0-1.20","","499.58999999944353","Stim/Stim-BG/II_I.PNG","86","","","2","exp","100","1","0","C","v","true"
"fixation-image-keyboard-release-original","33568","393873","0.0-23.0-1.21","","676.1299999998882","Stim/Stim-BG/MN_M.PNG","66","","","1","exp","100","2","1","C","b","true"
"fixation-image-keyboard-release-original","33604","396713","0.0-23.0-1.22","","660.3849999991944","Stim/Stim-GB/NI_I.PNG","86","","","1","exp","100","1","0","C","v","true"
"fixation-image-keyboard-release-original","33630","400041","0.0-23.0-1.23","","1200.6949999994831","Stim/Stim-BG/MN_M.PNG","86","","","1","exp","700","2","1","C","b","false"
"fixation-image-keyboard-release-original","33707","403081","0.0-23.0-1.24","","656.8799999986659","Stim/Stim-BG/IN_M.PNG","66","","","1","exp","400","1","1","IC","b","true"
"fixation-image-keyboard-release-original","33748","406001","0.0-23.0-1.25","","720.1499999973457","Stim/Stim-BG/MM_I.PNG","66","","","2","exp","400","2","0","IC","v","false"
"fixation-image-keyboard-release-original","33756","408561","0.0-23.0-1.26","","522.5299999983981","Stim/Stim-BG/NI_M.PNG","86","","","1","exp","700","1","1","IC","b","false"
"fixation-image-keyboard-release-original","33827","411521","0.0-23.0-1.27","","618.6850000013364","Stim/Stim-GB/MM_I.PNG","66","","","2","exp","700","2","0","IC","v","false"
"fixation-image-keyboard-release-original","33856","414369","0.0-23.0-1.28","","695.3499999981723","Stim/Stim-BG/II_M.PNG","86","","","2","exp","400","1","1","IC","b","false"
"fixation-image-keyboard-release-original","33857","416985","0.0-23.0-1.29","","596.3100000008708","Stim/Stim-GB/MN_I.PNG","66","","","1","exp","400","2","0","IC","v","false"
"fixation-image-keyboard-release-original","33917","419929","0.0-23.0-1.30","","640.8449999981094","Stim/Stim-BG/MN_M.PNG","66","","","1","exp","400","2","1","C","b","true"
"fixation-image-keyboard-release-original","33925","422505","0.0-23.0-1.31","","532.869999999064","Stim/Stim-GB/MN_M.PNG","66","","","1","exp","100","2","1","C","b","true"
"fixation-image-keyboard-release-original","33931","425081","0.0-23.0-1.32","","544.8099999994156","Stim/Stim-BG/MN_M.PNG","66","","","1","exp","100","2","1","C","b","true"
"fixation-image-keyboard-release-original","34088","428417","0.0-23.0-1.33","","555.5800000001909","Stim/Stim-GB/IN_I.PNG","86","","","1","exp","100","1","0","C","v","true"
"fixation-image-keyboard-release-original","34268","432105","0.0-23.0-1.34","","787.3099999997066","Stim/Stim-GB/II_M.PNG","86","","","2","exp","400","1","1","IC","b","false"
"fixation-image-keyboard-release-original","34321","434849","0.0-23.0-1.35","","467.915000001085","Stim/Stim-GB/NM_I.PNG","66","","","1","exp","400","2","0","IC","v","false"
"fixation-image-keyboard-release-original","34364","437649","0.0-23.0-1.36","","589.4549999975134","Stim/Stim-BG/NM_M.PNG","66","","","1","exp","100","2","1","C","b","true"
"fixation-image-keyboard-release-original","34385","440513","0.0-23.0-1.37","","744.5900000020629","Stim/Stim-GB/II_I.PNG","86","","","2","exp","100","1","0","C","v","true"
"fixation-image-keyboard-release-original","34488","444065","0.0-23.0-1.38","","1039.1099999978906","Stim/Stim-GB/MN_I.PNG","86","","","1","exp","100","2","0","IC","v","true"
"fixation-image-keyboard-release-original","34512","447041","0.0-23.0-1.39","","852.0249999965308","Stim/Stim-BG/MM_I.PNG","86","","","2","exp","100","2","0","IC","v","true"
"fixation-image-keyboard-release-original","34661","450265","0.0-23.0-1.40","","477.12999999930616","Stim/Stim-GB/II_M.PNG","66","","","2","exp","400","1","1","IC","b","true"
"fixation-image-keyboard-release-original","34880","455121","0.0-23.0-1.41","","1749.310000002908","Stim/Stim-GB/NM_M.PNG","86","","","1","exp","400","2","1","C","b","false"
"fixation-image-keyboard-release-original","35245","459537","0.0-23.0-1.42","","613.4100000017206","Stim/Stim-GB/MM_I.PNG","86","","","2","exp","100","2","0","IC","v","true"
"fixation-image-keyboard-release-original","35246","462033","0.0-23.0-1.43","","477.13999999902444","Stim/Stim-GB/II_I.PNG","66","","","2","exp","700","1","0","C","v","false"
"fixation-image-keyboard-release-original","35261","464633","0.0-23.0-1.44","","515.6150000002817","Stim/Stim-BG/II_M.PNG","66","","","2","exp","400","1","1","IC","b","true"
"fixation-image-keyboard-release-original","35345","467537","0.0-23.0-1.45","","489.81999999884283","Stim/Stim-BG/MN_I.PNG","86","","","1","exp","700","2","0","IC","v","true"
"fixation-image-keyboard-release-original","35354","469953","0.0-23.0-1.46","","364.32000000064727","Stim/Stim-GB/NM_M.PNG","66","","","1","exp","400","2","1","C","b","true"
"fixation-image-keyboard-release-original","35560","473633","0.0-23.0-1.47","","663.7300000002142","Stim/Stim-GB/MN_I.PNG","86","","","1","exp","700","2","0","IC","v","true"
"html-keyboard-response","35561","489081","0.0-23.0-2.47-0.47","","14447.184999997262","Take a break. Feel free to start again by pressing Enter.","13","","","","","","","","","",""
"fixation-image-keyboard-release-original","36888","497313","0.0-23.0-1.48","","640.93000000139","Stim/Stim-GB/NI_I.PNG","66","","","1","exp","400","1","0","C","v","false"
"fixation-image-keyboard-release-original","36889","500025","0.0-23.0-1.49","","691.1550000004936","Stim/Stim-GB/MM_M.PNG","86","","","2","exp","700","2","1","C","b","false"
"fixation-image-keyboard-release-original","37082","503945","0.0-23.0-1.50","","948.949999998149","Stim/Stim-GB/NI_I.PNG","66","","","1","exp","700","1","0","C","v","false"
"fixation-image-keyboard-release-original","37207","507153","0.0-23.0-1.51","","596.1849999984843","Stim/Stim-GB/MM_I.PNG","86","","","2","exp","700","2","0","IC","v","true"
"fixation-image-keyboard-release-original","37355","510473","0.0-23.0-1.52","","585.015000000596","Stim/Stim-GB/MM_M.PNG","86","","","2","exp","400","2","1","C","b","false"
"fixation-image-keyboard-release-original","37547","513969","0.0-23.0-1.53","","540.1850000016857","Stim/Stim-BG/MN_I.PNG","86","","","1","exp","700","2","0","IC","v","true"
"fixation-image-keyboard-release-original","37976","518529","0.0-23.0-1.54","","440.1050000014948","Stim/Stim-BG/II_I.PNG","66","","","2","exp","700","1","0","C","v","false"
"fixation-image-keyboard-release-original","38009","521193","0.0-23.0-1.55","","503.60000000009313","Stim/Stim-GB/NI_M.PNG","66","","","1","exp","700","1","1","IC","b","true"
"fixation-image-keyboard-release-original","38204","524633","0.0-23.0-1.56","","481.954999999376","Stim/Stim-BG/MN_M.PNG","86","","","1","exp","400","2","1","C","b","false"
"fixation-image-keyboard-release-original","38624","529225","0.0-23.0-1.57","","474.5199999997858","Stim/Stim-BG/II_M.PNG","66","","","2","exp","100","1","1","IC","b","true"
"fixation-image-keyboard-release-original","38727","532505","0.0-23.0-1.58","","757.4050000002608","Stim/Stim-BG/NI_I.PNG","66","","","1","exp","400","1","0","C","v","false"
"fixation-image-keyboard-release-original","38728","535041","0.0-23.0-1.59","","522.849999997532","Stim/Stim-BG/MM_M.PNG","86","","","2","exp","700","2","1","C","b","false"
"fixation-image-keyboard-release-original","38741","537665","0.0-23.0-1.60","","562.9399999998277","Stim/Stim-BG/MM_I.PNG","86","","","2","exp","100","2","0","IC","v","true"
"fixation-image-keyboard-release-original","38822","540665","0.0-23.0-1.61","","603.8100000005215","Stim/Stim-GB/MN_I.PNG","86","","","1","exp","100","2","0","IC","v","true"
"fixation-image-keyboard-release-original","39093","544640","0.0-23.0-1.62","","610.6849999997066","Stim/Stim-GB/II_I.PNG","66","","","2","exp","700","1","0","C","v","false"
"fixation-image-keyboard-release-original","39147","547528","0.0-23.0-1.63","","620.7849999991013","Stim/Stim-BG/IN_I.PNG","66","","","1","exp","400","1","0","C","v","false"
"fixation-image-keyboard-release-original","39179","550288","0.0-23.0-1.64","","594.1000000020722","Stim/Stim-BG/MM_M.PNG","86","","","2","exp","400","2","1","C","b","false"
"fixation-image-keyboard-release-original","39311","553465","0.0-23.0-1.65","","513.4299999990035","Stim/Stim-BG/MM_M.PNG","86","","","2","exp","700","2","1","C","b","false"
"fixation-image-keyboard-release-original","39404","556336","0.0-23.0-1.66","","394.43000000028405","Stim/Stim-BG/II_I.PNG","66","","","2","exp","100","1","0","C","v","false"
"fixation-image-keyboard-release-original","39405","558744","0.0-23.0-1.67","","384.35000000020955","Stim/Stim-BG/MM_I.PNG","86","","","2","exp","100","2","0","IC","v","true"
"fixation-image-keyboard-release-original","39406","561968","0.0-23.0-1.68","","1213.1799999987707","Stim/Stim-BG/NI_M.PNG","66","","","1","exp","400","1","1","IC","b","true"
"fixation-image-keyboard-release-original","39413","564680","0.0-23.0-1.69","","681.7750000009546","Stim/Stim-BG/MM_M.PNG","86","","","2","exp","400","2","1","C","b","false"
"fixation-image-keyboard-release-original","39535","567912","0.0-23.0-1.70","","617.5550000007497","Stim/Stim-BG/MN_I.PNG","86","","","1","exp","400","2","0","IC","v","true"
"fixation-image-keyboard-release-original","39712","571408","0.0-23.0-1.71","","612.9199999995762","Stim/Stim-GB/II_I.PNG","66","","","2","exp","100","1","0","C","v","false"
"fixation-image-keyboard-release-original","39780","574416","0.0-23.0-1.72","","673.0749999987893","Stim/Stim-GB/IN_M.PNG","66","","","1","exp","700","1","1","IC","b","true"
"fixation-image-keyboard-release-original","39897","577544","0.0-23.0-1.73","","549.25","Stim/Stim-BG/IN_M.PNG","66","","","1","exp","700","1","1","IC","b","true"
"fixation-image-keyboard-release-original","39927","580248","0.0-23.0-1.74","","543.819999998901","Stim/Stim-GB/MM_I.PNG","86","","","2","exp","400","2","0","IC","v","true"
"fixation-image-keyboard-release-original","39949","582840","0.0-23.0-1.75","","486.11499999964144","Stim/Stim-BG/NM_M.PNG","86","","","1","exp","400","2","1","C","b","false"
"fixation-image-keyboard-release-original","39985","585464","0.0-23.0-1.76","","452.23499999695923","Stim/Stim-BG/II_I.PNG","66","","","2","exp","400","1","0","C","v","false"
"fixation-image-keyboard-release-original","40006","588072","0.0-23.0-1.77","","494.8199999999488","Stim/Stim-GB/NM_M.PNG","66","","","1","exp","700","2","1","C","b","true"
"fixation-image-keyboard-release-original","40050","590784","0.0-23.0-1.78","","485.67999999795575","Stim/Stim-GB/MM_M.PNG","86","","","2","exp","100","2","1","C","b","false"
"fixation-image-keyboard-release-original","40077","593496","0.0-23.0-1.79","","558.9900000012713","Stim/Stim-BG/MM_M.PNG","86","","","2","exp","100","2","1","C","b","false"
"fixation-image-keyboard-release-original","40078","596008","0.0-23.0-1.80","","503.40499999944586","Stim/Stim-GB/MN_I.PNG","86","","","1","exp","700","2","0","IC","v","true"
"fixation-image-keyboard-release-original","40110","598592","0.0-23.0-1.81","","411.50000000197906","Stim/Stim-BG/II_M.PNG","66","","","2","exp","100","1","1","IC","b","true"
"fixation-image-keyboard-release-original","40132","601248","0.0-23.0-1.82","","540.9749999998603","Stim/Stim-GB/NI_I.PNG","66","","","1","exp","400","1","0","C","v","false"
"fixation-image-keyboard-release-original","40134","603784","0.0-23.0-1.83","","510.76499999908265","Stim/Stim-BG/II_I.PNG","66","","","2","exp","700","1","0","C","v","false"
"fixation-image-keyboard-release-original","40261","606825","0.0-23.0-1.84","","405.11000000324566","Stim/Stim-GB/NM_I.PNG","66","","","1","exp","700","2","0","IC","v","false"
"fixation-image-keyboard-release-original","40400","609993","0.0-23.0-1.85","","489.8299999985611","Stim/Stim-GB/MM_I.PNG","86","","","2","exp","100","2","0","IC","v","true"
"fixation-image-keyboard-release-original","40415","612713","0.0-23.0-1.86","","632.2550000004703","Stim/Stim-GB/IN_I.PNG","66","","","1","exp","100","1","0","C","v","false"
"fixation-image-keyboard-release-original","40416","615353","0.0-23.0-1.87","","618.1400000022259","Stim/Stim-GB/II_M.PNG","66","","","2","exp","700","1","1","IC","b","true"
"fixation-image-keyboard-release-original","40538","618593","0.0-23.0-1.88","","629.4349999988917","Stim/Stim-GB/IN_M.PNG","66","","","1","exp","100","1","1","IC","b","true"
"fixation-image-keyboard-release-original","40645","621585","0.0-23.0-1.89","","462.6100000021979","Stim/Stim-GB/IN_I.PNG","66","","","1","exp","700","1","0","C","v","false"
"fixation-image-keyboard-release-original","40646","623985","0.0-23.0-1.90","","392.93500000354834","Stim/Stim-BG/MM_I.PNG","86","","","2","exp","100","2","0","IC","v","true"
"fixation-image-keyboard-release-original","40766","627113","0.0-23.0-1.91","","509.9399999998277","Stim/Stim-GB/IN_I.PNG","66","","","1","exp","700","1","0","C","v","false"
"fixation-image-keyboard-release-original","40915","630385","0.0-23.0-1.92","","512.9500000001863","Stim/Stim-BG/MM_I.PNG","86","","","2","exp","700","2","0","IC","v","true"
"fixation-image-keyboard-release-original","41057","633513","0.0-23.0-1.93","","420.08999999961816","Stim/Stim-GB/II_M.PNG","66","","","2","exp","400","1","1","IC","b","true"
"fixation-image-keyboard-release-original","41104","636185","0.0-23.0-1.94","","431.17500000144355","Stim/Stim-BG/IN_M.PNG","86","","","1","exp","400","1","1","IC","b","false"
"fixation-image-keyboard-release-original","41220","639137","0.0-23.0-1.95","","385.900000001071","Stim/Stim-BG/II_I.PNG","66","","","2","exp","400","1","0","C","v","false"
"html-keyboard-response","41221","642313","0.0-23.0-2.95-0.95","","2161.3199999992503","Take a break. Feel free to start again by pressing Enter.","13","","","","","","","","","",""
"fixation-image-keyboard-release-original","41622","645769","0.0-23.0-1.96","","478.865000000922","Stim/Stim-BG/NI_M.PNG","66","","","1","exp","400","1","1","IC","b","true"
"fixation-image-keyboard-release-original","41654","648457","0.0-23.0-1.97","","530.9850000012666","Stim/Stim-BG/IN_I.PNG","66","","","1","exp","100","1","0","C","v","false"
"fixation-image-keyboard-release-original","41703","651257","0.0-23.0-1.98","","546.4549999996088","Stim/Stim-BG/MN_I.PNG","86","","","1","exp","400","2","0","IC","v","true"
"fixation-image-keyboard-release-original","41704","653745","0.0-23.0-1.99","","463.0199999992037","Stim/Stim-GB/MM_I.PNG","86","","","2","exp","700","2","0","IC","v","true"
"fixation-image-keyboard-release-original","42067","658113","0.0-23.0-1.100","","568.0850000025239","Stim/Stim-BG/NM_M.PNG","86","","","1","exp","400","2","1","C","b","false"
"fixation-image-keyboard-release-original","42068","660625","0.0-23.0-1.101","","499.14999999967404","Stim/Stim-BG/MM_I.PNG","86","","","2","exp","400","2","0","IC","v","true"
"fixation-image-keyboard-release-original","42118","663393","0.0-23.0-1.102","","510.94999999995343","Stim/Stim-BG/MM_M.PNG","86","","","2","exp","100","2","1","C","b","false"
"fixation-image-keyboard-release-original","42145","666152","0.0-23.0-1.103","","611.2600000015227","Stim/Stim-GB/II_M.PNG","66","","","2","exp","700","1","1","IC","b","true"
"fixation-image-keyboard-release-original","42167","668936","0.0-23.0-1.104","","672.0550000027288","Stim/Stim-BG/IN_M.PNG","66","","","1","exp","700","1","1","IC","b","true"
"fixation-image-keyboard-release-original","42248","671880","0.0-23.0-1.105","","532.6150000001071","Stim/Stim-GB/II_I.PNG","66","","","2","exp","100","1","0","C","v","false"
"fixation-image-keyboard-release-original","42642","676336","0.0-23.0-1.106","","489.7449999989476","Stim/Stim-BG/II_M.PNG","66","","","2","exp","700","1","1","IC","b","true"
"fixation-image-keyboard-release-original","42856","679896","0.0-23.0-1.107","","493.8899999979185","Stim/Stim-BG/MM_I.PNG","86","","","2","exp","700","2","0","IC","v","true"
"fixation-image-keyboard-release-original","43157","683848","0.0-23.0-1.108","","464.02999999921303","Stim/Stim-GB/II_I.PNG","66","","","2","exp","700","1","0","C","v","false"
"fixation-image-keyboard-release-original","43261","686824","0.0-23.0-1.109","","450.2549999996554","Stim/Stim-BG/MM_I.PNG","86","","","2","exp","400","2","0","IC","v","true"
"fixation-image-keyboard-release-original","43325","689672","0.0-23.0-1.110","","538.3700000019744","Stim/Stim-GB/NI_M.PNG","66","","","1","exp","100","1","1","IC","b","true"
"fixation-image-keyboard-release-original","43395","692512","0.0-23.0-1.111","","496.62999999779277","Stim/Stim-GB/MN_M.PNG","86","","","1","exp","700","2","1","C","b","false"
"fixation-image-keyboard-release-original","43516","695648","0.0-23.0-1.112","","529.8600000023143","Stim/Stim-BG/NM_M.PNG","86","","","1","exp","700","2","1","C","b","false"
"fixation-image-keyboard-release-original","43995","700512","0.0-23.0-1.113","","488.2050000014715","Stim/Stim-GB/NI_I.PNG","66","","","1","exp","700","1","0","C","v","false"
"fixation-image-keyboard-release-original","44234","704248","0.0-23.0-1.114","","550.8850000005914","Stim/Stim-GB/II_I.PNG","66","","","2","exp","400","1","0","C","v","false"
"fixation-image-keyboard-release-original","44276","707032","0.0-23.0-1.115","","564.7599999974482","Stim/Stim-BG/II_M.PNG","66","","","2","exp","700","1","1","IC","b","true"
"fixation-image-keyboard-release-original","44605","711144","0.0-23.0-1.116","","467.6550000003772","Stim/Stim-BG/MN_I.PNG","86","","","1","exp","100","2","0","IC","v","true"
"fixation-image-keyboard-release-original","44628","713696","0.0-23.0-1.117","","435.63000000000466","Stim/Stim-BG/IN_I.PNG","86","","","1","exp","700","1","0","C","v","true"
"fixation-image-keyboard-release-original","44776","716936","0.0-23.0-1.118","","492.4699999974109","Stim/Stim-GB/MN_M.PNG","86","","","1","exp","400","2","1","C","b","false"
"fixation-image-keyboard-release-original","44812","719688","0.0-23.0-1.119","","573.3000000000466","Stim/Stim-GB/II_M.PNG","66","","","2","exp","100","1","1","IC","b","true"
"fixation-image-keyboard-release-original","44948","722984","0.0-23.0-1.120","","605.390000000596","Stim/Stim-GB/NI_M.PNG","66","","","1","exp","400","1","1","IC","b","true"
"fixation-image-keyboard-release-original","44949","725424","0.0-23.0-1.121","","412.00000000023283","Stim/Stim-GB/MM_I.PNG","86","","","2","exp","100","2","0","IC","v","true"
"fixation-image-keyboard-release-original","45194","729129","0.0-23.0-1.122","","476.6750000016764","Stim/Stim-GB/MM_I.PNG","86","","","2","exp","400","2","0","IC","v","true"
"fixation-image-keyboard-release-original","45215","731785","0.0-23.0-1.123","","540.3399999995017","Stim/Stim-GB/MM_M.PNG","86","","","2","exp","400","2","1","C","b","false"
"fixation-image-keyboard-release-original","45346","734881","0.0-23.0-1.124","","439.16999999783","Stim/Stim-BG/MM_I.PNG","86","","","2","exp","400","2","0","IC","v","true"
"fixation-image-keyboard-release-original","45367","737473","0.0-23.0-1.125","","498.25500000221655","Stim/Stim-GB/IN_M.PNG","66","","","1","exp","100","1","1","IC","b","true"
"fixation-image-keyboard-release-original","45381","739961","0.0-23.0-1.126","","407.2100000012433","Stim/Stim-GB/MM_M.PNG","86","","","2","exp","100","2","1","C","b","false"
"fixation-image-keyboard-release-original","45414","742553","0.0-23.0-1.127","","432.0450000013225","Stim/Stim-GB/NI_I.PNG","66","","","1","exp","100","1","0","C","v","false"
"fixation-image-keyboard-release-original","45561","745865","0.0-23.0-1.128","","596.6050000024261","Stim/Stim-BG/IN_M.PNG","66","","","1","exp","100","1","1","IC","b","true"
"fixation-image-keyboard-release-original","45630","748689","0.0-23.0-1.129","","469.2450000003446","Stim/Stim-BG/II_I.PNG","66","","","2","exp","400","1","0","C","v","false"
"fixation-image-keyboard-release-original","45637","751233","0.0-23.0-1.130","","507.5299999989802","Stim/Stim-GB/NI_M.PNG","66","","","1","exp","400","1","1","IC","b","true"
"fixation-image-keyboard-release-original","45676","753897","0.0-23.0-1.131","","469.03500000189524","Stim/Stim-GB/MM_M.PNG","86","","","2","exp","700","2","1","C","b","false"
"fixation-image-keyboard-release-original","45685","756401","0.0-23.0-1.132","","452.39500000025146","Stim/Stim-GB/MM_I.PNG","86","","","2","exp","400","2","0","IC","v","true"
"fixation-image-keyboard-release-original","45686","758873","0.0-23.0-1.133","","455.69500000053085","Stim/Stim-BG/II_M.PNG","66","","","2","exp","100","1","1","IC","b","true"
"fixation-image-keyboard-release-original","45777","761793","0.0-23.0-1.134","","467.2400000017369","Stim/Stim-GB/MM_M.PNG","86","","","2","exp","100","2","1","C","b","false"
"fixation-image-keyboard-release-original","45783","764329","0.0-23.0-1.135","","497.9849999981234","Stim/Stim-BG/NI_I.PNG","66","","","1","exp","700","1","0","C","v","false"
"fixation-image-keyboard-release-original","45912","767473","0.0-23.0-1.136","","499.9150000002701","Stim/Stim-BG/NI_I.PNG","66","","","1","exp","700","1","0","C","v","false"
"fixation-image-keyboard-release-original","45963","770265","0.0-23.0-1.137","","526.9699999989243","Stim/Stim-GB/NM_I.PNG","86","","","1","exp","700","2","0","IC","v","true"
"fixation-image-keyboard-release-original","46537","775625","0.0-23.0-1.138","","497.06999999762047","Stim/Stim-BG/II_M.PNG","66","","","2","exp","400","1","1","IC","b","true"
"fixation-image-keyboard-release-original","46685","778833","0.0-23.0-1.139","","466.6399999987334","Stim/Stim-GB/II_M.PNG","66","","","2","exp","100","1","1","IC","b","true"
"fixation-image-keyboard-release-original","46847","782169","0.0-23.0-1.140","","537.0249999978114","Stim/Stim-BG/NI_I.PNG","66","","","1","exp","400","1","0","C","v","false"
"fixation-image-keyboard-release-original","47281","786832","0.0-23.0-1.141","","491.87499999965075","Stim/Stim-BG/NM_M.PNG","86","","","1","exp","100","2","1","C","b","false"
"fixation-image-keyboard-release-original","47323","789496","0.0-23.0-1.142","","455.92000000027474","Stim/Stim-GB/MM_I.PNG","86","","","2","exp","400","2","0","IC","v","true"
"fixation-image-keyboard-release-original","47670","793816","0.0-23.0-1.143","","582.6699999998091","Stim/Stim-BG/IN_I.PNG","66","","","1","exp","100","1","0","C","v","false"
"html-keyboard-response","47671","807512","0.0-23.0-2.143-0.143","","12684.859999997541","Take a break. Feel free to start again by pressing Enter.","13","","","","","","","","","",""
"fixation-image-keyboard-release-original","48412","812736","0.0-23.0-1.144","","560.21999999939","Stim/Stim-BG/NM_I.PNG","86","","","1","exp","400","2","0","IC","v","true"
"fixation-image-keyboard-release-original","48430","815376","0.0-23.0-1.145","","563.0349999992177","Stim/Stim-BG/NM_M.PNG","86","","","1","exp","700","2","1","C","b","false"
"fixation-image-keyboard-release-original","48520","818328","0.0-23.0-1.146","","514.5049999991897","Stim/Stim-BG/II_I.PNG","66","","","2","exp","400","1","0","C","v","false"
"fixation-image-keyboard-release-original","48521","820792","0.0-23.0-1.147","","456.8249999973923","Stim/Stim-GB/NI_M.PNG","66","","","1","exp","100","1","1","IC","b","true"
"fixation-image-keyboard-release-original","48602","823696","0.0-23.0-1.148","","502.230000001844","Stim/Stim-GB/II_I.PNG","66","","","2","exp","400","1","0","C","v","false"
"fixation-image-keyboard-release-original","48699","826584","0.0-23.0-1.149","","410.1200000003446","Stim/Stim-BG/MN_I.PNG","86","","","1","exp","100","2","0","IC","v","true"
"fixation-image-keyboard-release-original","48816","829992","0.0-23.0-1.150","","829.2500000025611","Stim/Stim-GB/NM_M.PNG","86","","","1","exp","100","2","1","C","b","false"
"fixation-image-keyboard-release-original","48921","832992","0.0-23.0-1.151","","483.4050000027055","Stim/Stim-BG/NI_I.PNG","66","","","1","exp","100","1","0","C","v","false"
"fixation-image-keyboard-release-original","49060","836120","0.0-23.0-1.152","","441.79499999887776","Stim/Stim-BG/MM_M.PNG","86","","","2","exp","400","2","1","C","b","false"
"fixation-image-keyboard-release-original","49142","839152","0.0-23.0-1.153","","632.0249999989755","Stim/Stim-GB/IN_I.PNG","66","","","1","exp","400","1","0","C","v","false"
"fixation-image-keyboard-release-original","49168","841848","0.0-23.0-1.154","","559.464999998454","Stim/Stim-BG/IN_M.PNG","66","","","1","exp","100","1","1","IC","b","true"
"fixation-image-keyboard-release-original","49486","845952","0.0-23.0-1.155","","529.7449999997625","Stim/Stim-GB/IN_M.PNG","66","","","1","exp","700","1","1","IC","b","true"
"fixation-image-keyboard-release-original","49800","849977","0.0-23.0-1.156","","471.54500000039116","Stim/Stim-GB/MM_I.PNG","86","","","2","exp","100","2","0","IC","v","true"
"fixation-image-keyboard-release-original","49994","853640","0.0-23.0-1.157","","700.5400000016671","Stim/Stim-GB/NM_M.PNG","86","","","1","exp","700","2","1","C","b","false"
"fixation-image-keyboard-release-original","50174","857105","0.0-23.0-1.158","","583.619999997667","Stim/Stim-BG/NM_I.PNG","86","","","1","exp","700","2","0","IC","v","true"
"fixation-image-keyboard-release-original","50443","860969","0.0-23.0-1.159","","542.6049999987008","Stim/Stim-BG/MM_I.PNG","86","","","2","exp","700","2","0","IC","v","true"
"fixation-image-keyboard-release-original","50517","863896","0.0-23.0-1.160","","546.1299999988405","Stim/Stim-BG/NI_M.PNG","66","","","1","exp","100","1","1","IC","b","true"
"fixation-image-keyboard-release-original","50565","867112","0.0-23.0-1.161","","975.6200000010431","Stim/Stim-GB/II_I.PNG","66","","","2","exp","100","1","0","C","v","false"
"fixation-image-keyboard-release-original","50665","870056","0.0-23.0-1.162","","442.53000000026077","Stim/Stim-GB/NM_I.PNG","86","","","1","exp","100","2","0","IC","v","true"
"fixation-image-keyboard-release-original","50790","873361","0.0-23.0-1.163","","684.2500000020955","Stim/Stim-GB/IN_I.PNG","66","","","1","exp","400","1","0","C","v","false"
"fixation-image-keyboard-release-original","50936","876560","0.0-23.0-1.164","","495.67499999830034","Stim/Stim-GB/MN_M.PNG","86","","","1","exp","100","2","1","C","b","false"
"fixation-image-keyboard-release-original","50937","879080","0.0-23.0-1.165","","500.4300000000512","Stim/Stim-BG/MM_M.PNG","86","","","2","exp","100","2","1","C","b","false"
"fixation-image-keyboard-release-original","50985","881776","0.0-23.0-1.166","","461.20999999763444","Stim/Stim-BG/II_M.PNG","66","","","2","exp","700","1","1","IC","b","true"
"fixation-image-keyboard-release-original","51026","884425","0.0-23.0-1.167","","444.37500000279397","Stim/Stim-GB/MM_M.PNG","86","","","2","exp","400","2","1","C","b","false"
"fixation-image-keyboard-release-original","51062","887000","0.0-23.0-1.168","","396.86499999882653","Stim/Stim-GB/NM_I.PNG","66","","","1","exp","400","2","0","IC","v","false"
"fixation-image-keyboard-release-original","51134","889816","0.0-23.0-1.169","","468.73499999858905","Stim/Stim-BG/NM_I.PNG","86","","","1","exp","100","2","0","IC","v","true"
"fixation-image-keyboard-release-original","51177","892585","0.0-23.0-1.170","","546.3950000011828","Stim/Stim-BG/IN_I.PNG","66","","","1","exp","700","1","0","C","v","false"
"fixation-image-keyboard-release-original","51204","895144","0.0-23.0-1.171","","418.2650000002468","Stim/Stim-BG/MM_M.PNG","86","","","2","exp","700","2","1","C","b","false"
"fixation-image-keyboard-release-original","51214","897688","0.0-23.0-1.172","","493.4350000002887","Stim/Stim-GB/II_I.PNG","66","","","2","exp","400","1","0","C","v","false"
"fixation-image-keyboard-release-original","51215","900160","0.0-23.0-1.173","","446.05500000040047","Stim/Stim-GB/MN_M.PNG","86","","","1","exp","700","2","1","C","b","false"
"fixation-image-keyboard-release-original","51216","902665","0.0-23.0-1.174","","491.12999999849126","Stim/Stim-GB/NM_M.PNG","86","","","1","exp","100","2","1","C","b","false"
"fixation-image-keyboard-release-original","51217","905200","0.0-23.0-1.175","","507.2600000021048","Stim/Stim-GB/II_I.PNG","66","","","2","exp","700","1","0","C","v","false"
"fixation-image-keyboard-release-original","51311","908216","0.0-23.0-1.176","","549.0849999987986","Stim/Stim-BG/II_I.PNG","86","","","2","exp","100","1","0","C","v","true"
"fixation-image-keyboard-release-original","51333","910648","0.0-23.0-1.177","","322.6699999977136","Stim/Stim-BG/MM_I.PNG","86","","","2","exp","700","2","0","IC","v","true"
"fixation-image-keyboard-release-original","51352","913520","0.0-23.0-1.178","","769.0650000004098","Stim/Stim-BG/NM_I.PNG","86","","","1","exp","100","2","0","IC","v","true"
"fixation-image-keyboard-release-original","51425","916504","0.0-23.0-1.179","","615.5","Stim/Stim-BG/MN_M.PNG","86","","","1","exp","700","2","1","C","b","false"
"fixation-image-keyboard-release-original","51477","919520","0.0-23.0-1.180","","769.0599999986589","Stim/Stim-BG/II_M.PNG","86","","","2","exp","400","1","1","IC","b","false"
"fixation-image-keyboard-release-original","51720","923240","0.0-23.0-1.181","","504.6199999997625","Stim/Stim-BG/NI_M.PNG","66","","","1","exp","100","1","1","IC","b","true"
"fixation-image-keyboard-release-original","51776","926040","0.0-23.0-1.182","","523.1000000021886","Stim/Stim-GB/II_M.PNG","66","","","2","exp","100","1","1","IC","b","true"
"fixation-image-keyboard-release-original","51789","928568","0.0-23.0-1.183","","459.87500000046566","Stim/Stim-BG/MM_M.PNG","86","","","2","exp","100","2","1","C","b","false"
"fixation-image-keyboard-release-original","51829","931176","0.0-23.0-1.184","","398.7799999995623","Stim/Stim-BG/MM_M.PNG","86","","","2","exp","700","2","1","C","b","false"
"fixation-image-keyboard-release-original","51849","933784","0.0-23.0-1.185","","505.73500000243075","Stim/Stim-GB/II_M.PNG","66","","","2","exp","700","1","1","IC","b","true"
"fixation-image-keyboard-release-original","51918","936632","0.0-23.0-1.186","","518.8300000008894","Stim/Stim-BG/NI_M.PNG","86","","","1","exp","700","1","1","IC","b","false"
"fixation-image-keyboard-release-original","51967","939544","0.0-23.0-1.187","","666.1149999999907","Stim/Stim-BG/IN_I.PNG","66","","","1","exp","400","1","0","C","v","false"
"fixation-image-keyboard-release-original","51968","941992","0.0-23.0-1.188","","441.27499999746215","Stim/Stim-GB/MM_M.PNG","86","","","2","exp","400","2","1","C","b","false"
"fixation-image-keyboard-release-original","52000","944560","0.0-23.0-1.189","","403.5750000003027","Stim/Stim-BG/NI_I.PNG","66","","","1","exp","100","1","0","C","v","false"
"fixation-image-keyboard-release-original","52072","947408","0.0-23.0-1.190","","500.98499999870546","Stim/Stim-GB/MM_M.PNG","86","","","2","exp","700","2","1","C","b","false"
"fixation-image-keyboard-release-original","52095","950000","0.0-23.0-1.191","","474.5599999987753","Stim/Stim-GB/MM_M.PNG","86","","","2","exp","700","2","1","C","b","false"
"call-function","52096","951012","0.0-24.0","","","","","","","","","","","","","",""
"survey-html-form","52097","955504","0.0-25.0","","4489.424999999697","","","{""hands2"":""Both""}","","","","","","","","",""
"html-keyboard-response","52098","967336","0.0-26.0","","11831.265000000712","<p><h1>This is the end of the experiment.</h1></p><p>Please <a href='Debrief.pdf' target='_blank'>Click Here</a> (this will open a new window) to read more about the study.</p><p>Press ENTER to end the experiment (you will be sent to Prolific - if something goes wrong, the completion code for this study is: 3F11CBBF).</p>","13","","","","","","","","","",""
"pavlovia","52099","967342","0.0-27.0","","","","","","","","","","","","","",""
