"trial_type","trial_index","time_elapsed","internal_node_id","value","rt","stimulus","key_press","responses","success","hand","test","gap","finger","cue","con","correct_response","correct"
"pavlovia","0","8","0.0-0.0","","","","","","","","","","","","","",""
"call-function","1","9","0.0-1.0","","","","","","","","","","","","","",""
"html-keyboard-response","2","7183","0.0-2.0","","7172.434999956749","<div class = 'my_window'><p><h1>Welcome!</h1><br><p><p>This experiment is adminterested by Carl Michael Galang (McMaster University), Dr. Emiel Cracco (Ghent University), Dr. Marcel Brass (Humboldt University of Berlin), & Dr. Sukhvinder Obhi (McMaster University).</p><p>The purpose of this study is to explore basic perceptual processing mechanisms.</p><p>Information gathered during this study will be written up for publication in an academic journal. While there are no direct benefits to you taking part in this study (other than learning more about the research topic and getting paid on Prolific), the results of this study will provide us with a better understanding of perceptual and sensory processes. To learn about this study, particularly in the terms of any associated risks or harms, how confidentiality and anonymity will be handled, withdrawal procedures, incentives that are promised, how to obtain information about the results, etc., please read the accompanying letter of information - <a href='LOI.pdf' target='_blank'>Click Here</a> (this will open a new window).</p><p>This study should take around 10min to complete.</p><p>If you have questions or need more information about the study itself, please contact me at: galangc@mcmaster.ca. This study has been reviewed by the McMaster University Research Ethics Board and received ethics clearance. If you have concerns or questions about your rights as a participant or about the way the study is conducted, please contact the McMaster Research Ethics Secretariat at ethicsoffice@mcmaster.ca.</p><br><p><h1>CONSENT</h1></p><p>I have read the information presented in the letter of information and I agree to participate in this study.</p><p>By pressing Enter, I consent to the above.<p>","13","","","","","","","","","",""
"survey-html-form","3","12828","0.0-3.0","","5643.319999915548","","","{""1"":""5d8934d9a3dd000001ce8676""}","","","","","","","","",""
"fullscreen","4","15875","0.0-4.0","","","","","","true","","","","","","","",""
"call-function","5","15878","0.0-5.0","","","","","","","","","","","","","",""
"html-keyboard-response","6","29801","0.0-6.0","","13917.625000001863","<div class = 'my_window'><h1>Instructions</h1><p>Your task in this experiment is to respond to the letters I or M as they appear on the screen. Unlike most experiments, your task will be to <strong><u>release</u></strong> keys (not push).</p><p>Before each trial starts, please ensure that you keep the <strong><u>V key</u></strong> and <strong><u>B key</u></strong> depressed with your <strong><u>right index finger</u></strong> on the <strong><u>V key</u></strong> and your <strong><u>right middle finger</u></strong> on the <strong><u>B key</u></strong> (see image below). Responses on this experiment will consist of lifting your <strong><u>right index finger</u></strong> to release the <strong><u>V key</u></strong> if you see the letter <strong><u>I</u></strong> or lifting your <strong><u>right middle finger</u></strong> to release the <strong><u>B key</u></strong> if you see the letter <strong><u>M</u></strong> as fast as you can. It is important that you <strong><u>only use your right hand</u></strong> to do the task.</p><p><img src='keyboard_img.png'></p><p>While you complete this task, there will be a couple of hands moving in the background. Ignore them and focus on the task.</p><p>Press ENTER to continue.</p></div>","13","","","","","","","","","",""
"html-keyboard-response","7","32589","0.0-7.0","","2785.9300000127405","<div class = 'my_window'><h1>Practice</h1><p>You will first do a practice phase. In the practice phase, you will get feedback on your performance. The practice phase contains 10 trials, but will add an extra trial every time you respond incorrectly.</p><p><p>Before each trial starts, please ensure that you keep the <strong><u>V key</u></strong> and <strong><u>B key</u></strong> depressed with your <strong><u>right index finger</u></strong> on the <strong><u>V key</u></strong> and your <strong><u>right middle finger</u></strong> on the <strong><u>B key</u></strong> (see image below). Responses on this experiment will consist of lifting your <strong><u>right index finger</u></strong> to release the <strong><u>V key</u></strong> if you see the letter <strong><u>I</u></strong> or lifting your <strong><u>right middle finger</u></strong> to release the <strong><u>B key</u></strong> if you see the letter <strong><u>M</u></strong> as fast as you can. It is important that you <strong><u>only use your right hand</u></strong> to do the task.</p><p><img src='keyboard_img.png'></p><p>While you complete this task, there will be a couple of hands moving in the background. Ignore them and focus on the task.</p><p>This is a reaction time experiment, so please try to respond as fast as possible while at the same time minimizing mistakes.</p><p>Press ENTER to begin.</p></div>","13","","","","","","","","","",""
"fixation-image-keyboard-release-original","556","38375","0.0-8.0-1.0","","355.32500001136214","Stim/Stim-GB/MM_M.PNG","66","","","2","exp","400","2","1","C","b","true"
"html-keyboard-response","557","39490","0.0-8.0-2.0","","null","<p> CORRECT </p>","null","","","","","","","","","",""
"fixation-image-keyboard-release-original","2722","58184","0.0-9.0-1.0","","835.689999978058","Stim/Stim-BG/MM_I.PNG","86","","","2","exp","700","2","0","IC","v","true"
"html-keyboard-response","2723","59302","0.0-9.0-2.0","","null","<p> CORRECT </p>","null","","","","","","","","","",""
"fixation-image-keyboard-release-original","2924","62268","0.0-10.0-1.0","","357.9700000118464","Stim/Stim-GB/MM_M.PNG","86","","","2","exp","700","2","1","C","b","false"
"html-keyboard-response","2925","63392","0.0-10.0-2.0","","null","<p> INCORRECT </p>","null","","","","","","","","","",""
"fixation-image-keyboard-release-original","3072","66000","0.0-10.1-1.1","","420.27000000234693","Stim/Stim-GB/MM_M.PNG","86","","","2","exp","100","2","1","C","b","false"
"html-keyboard-response","3073","67119","0.0-10.1-2.1","","null","<p> INCORRECT </p>","null","","","","","","","","","",""
"fixation-image-keyboard-release-original","3660","72852","0.0-10.2-1.2","","20.37499996367842","Stim/Stim-GB/NI_M.PNG","86","","","1","exp","400","1","1","IC","b","false"
"html-keyboard-response","3661","73975","0.0-10.2-2.2","","null","<p> INCORRECT </p>","null","","","","","","","","","",""
"fixation-image-keyboard-release-original","3737","77319","0.0-10.3-1.3","","1730.2050000289455","Stim/Stim-GB/II_I.PNG","66","","","2","exp","400","1","0","C","v","false"
"html-keyboard-response","3738","78436","0.0-10.3-2.3","","null","<p> INCORRECT </p>","null","","","","","","","","","",""
"fixation-image-keyboard-release-original","3812","80333","0.0-10.4-1.4","","311.3450000528246","Stim/Stim-BG/MN_M.PNG","86","","","1","exp","100","2","1","C","b","false"
"html-keyboard-response","3813","81450","0.0-10.4-2.4","","null","<p> INCORRECT </p>","null","","","","","","","","","",""
"fixation-image-keyboard-release-original","3851","83224","0.0-10.5-1.5","","437.2050000820309","Stim/Stim-GB/MN_M.PNG","86","","","1","exp","100","2","1","C","b","false"
"html-keyboard-response","3852","84328","0.0-10.5-2.5","","null","<p> INCORRECT </p>","null","","","","","","","","","",""
"fixation-image-keyboard-release-original","5112","98260","0.0-10.6-1.6","","2741.2250000052154","Stim/Stim-GB/IN_I.PNG","66","","","1","exp","400","1","0","C","v","false"
"html-keyboard-response","5113","99380","0.0-10.6-2.6","","null","<p> INCORRECT </p>","null","","","","","","","","","",""
"fixation-image-keyboard-release-original","5199","101745","0.0-10.7-1.7","","673.7150000408292","Stim/Stim-BG/II_M.PNG","86","","","2","exp","100","1","1","IC","b","false"
"html-keyboard-response","5200","102864","0.0-10.7-2.7","","null","<p> INCORRECT </p>","null","","","","","","","","","",""
"fixation-image-keyboard-release-original","5728","108583","0.0-10.8-1.8","","453.4449999919161","Stim/Stim-BG/MM_M.PNG","86","","","2","exp","700","2","1","C","b","false"
"html-keyboard-response","5729","109697","0.0-10.8-2.8","","null","<p> INCORRECT </p>","null","","","","","","","","","",""
"fixation-image-keyboard-release-original","6030","124320","0.0-10.9-1.9","","11194.65499999933","Stim/Stim-BG/MM_M.PNG","86","","","2","exp","700","2","1","C","b","false"
"html-keyboard-response","6031","125427","0.0-10.9-2.9","","null","<p> INCORRECT </p>","null","","","","","","","","","",""
"fixation-image-keyboard-release-original","7439","139659","0.0-10.10-1.10","","1932.065000059083","Stim/Stim-BG/II_M.PNG","86","","","2","exp","100","1","1","IC","b","false"
"html-keyboard-response","7440","140779","0.0-10.10-2.10","","null","<p> INCORRECT </p>","null","","","","","","","","","",""
"fixation-image-keyboard-release-original","7481","142460","0.0-10.11-1.11","","363.46499994397163","Stim/Stim-BG/II_I.PNG","86","","","2","exp","400","1","0","C","v","true"
"html-keyboard-response","7482","143585","0.0-10.11-2.11","","null","<p> CORRECT </p>","null","","","","","","","","","",""
"fixation-image-keyboard-release-original","7550","145540","0.0-11.0-1.0","","401.7500000772998","Stim/Stim-GB/MM_M.PNG","86","","","2","exp","400","2","1","C","b","false"
"html-keyboard-response","7551","146668","0.0-11.0-2.0","","null","<p> INCORRECT </p>","null","","","","","","","","","",""
"fixation-image-keyboard-release-original","7590","148266","0.0-11.1-1.1","","295.1500000199303","Stim/Stim-BG/NM_M.PNG","86","","","1","exp","400","2","1","C","b","false"
"html-keyboard-response","7591","149375","0.0-11.1-2.1","","null","<p> INCORRECT </p>","null","","","","","","","","","",""
"fixation-image-keyboard-release-original","7627","151196","0.0-11.2-1.2","","538.7849999824539","Stim/Stim-BG/II_M.PNG","86","","","2","exp","400","1","1","IC","b","false"
"html-keyboard-response","7628","152309","0.0-11.2-2.2","","null","<p> INCORRECT </p>","null","","","","","","","","","",""
"fixation-image-keyboard-release-original","7665","153993","0.0-11.3-1.3","","382.28999997954816","Stim/Stim-GB/NI_I.PNG","66","","","1","exp","400","1","0","C","v","false"
"html-keyboard-response","7666","155118","0.0-11.3-2.3","","null","<p> INCORRECT </p>","null","","","","","","","","","",""
"fixation-image-keyboard-release-original","7714","156817","0.0-11.4-1.4","","321.05499994941056","Stim/Stim-BG/MM_M.PNG","86","","","2","exp","700","2","1","C","b","false"
"html-keyboard-response","7715","157934","0.0-11.4-2.4","","null","<p> INCORRECT </p>","null","","","","","","","","","",""
"fixation-image-keyboard-release-original","7863","160542","0.0-11.5-1.5","","421.680000028573","Stim/Stim-GB/NM_I.PNG","66","","","1","exp","100","2","0","IC","v","false"
"html-keyboard-response","7864","161651","0.0-11.5-2.5","","null","<p> INCORRECT </p>","null","","","","","","","","","",""
"fixation-image-keyboard-release-original","7933","163738","0.0-11.6-1.6","","535.245000035502","Stim/Stim-BG/II_M.PNG","86","","","2","exp","100","1","1","IC","b","false"
"html-keyboard-response","7934","164849","0.0-11.6-2.6","","null","<p> INCORRECT </p>","null","","","","","","","","","",""
"fixation-image-keyboard-release-original","7970","167099","0.0-11.7-1.7","","971.1600000737235","Stim/Stim-GB/MM_M.PNG","86","","","2","exp","700","2","1","C","b","false"
"html-keyboard-response","7971","168229","0.0-11.7-2.7","","null","<p> INCORRECT </p>","null","","","","","","","","","",""
"fixation-image-keyboard-release-original","8042","171419","0.0-11.8-1.8","","1625.4949999274686","Stim/Stim-GB/MN_M.PNG","86","","","1","exp","100","2","1","C","b","false"
"html-keyboard-response","8043","172544","0.0-11.8-2.8","","null","<p> INCORRECT </p>","null","","","","","","","","","",""
"fixation-image-keyboard-release-original","8112","174586","0.0-11.9-1.9","","490.9899999620393","Stim/Stim-BG/MM_M.PNG","66","","","2","exp","700","2","1","C","b","true"
"html-keyboard-response","8113","175704","0.0-11.9-2.9","","null","<p> CORRECT </p>","null","","","","","","","","","",""
"fixation-image-keyboard-release-original","8194","177839","0.0-12.0-1.0","","486.84000002685934","Stim/Stim-GB/MM_I.PNG","66","","","2","exp","700","2","0","IC","v","false"
"html-keyboard-response","8195","178961","0.0-12.0-2.0","","null","<p> INCORRECT </p>","null","","","","","","","","","",""
"fixation-image-keyboard-release-original","8406","182235","0.0-12.1-1.1","","590.5500000808388","Stim/Stim-BG/MN_I.PNG","86","","","1","exp","700","2","0","IC","v","true"
"html-keyboard-response","8407","183352","0.0-12.1-2.1","","null","<p> CORRECT </p>","null","","","","","","","","","",""
"fixation-image-keyboard-release-original","8459","185301","0.0-13.0-1.0","","539.1599999275059","Stim/Stim-GB/II_M.PNG","86","","","2","exp","100","1","1","IC","b","false"
"html-keyboard-response","8460","186425","0.0-13.0-2.0","","null","<p> INCORRECT </p>","null","","","","","","","","","",""
"fixation-image-keyboard-release-original","8497","188257","0.0-13.1-1.1","","532.9950000159442","Stim/Stim-BG/NI_M.PNG","66","","","1","exp","100","1","1","IC","b","true"
"html-keyboard-response","8498","189374","0.0-13.1-2.1","","null","<p> CORRECT </p>","null","","","","","","","","","",""
"fixation-image-keyboard-release-original","8539","191261","0.0-14.0-1.0","","564.064999925904","Stim/Stim-BG/II_M.PNG","66","","","2","exp","100","1","1","IC","b","true"
"html-keyboard-response","8540","192371","0.0-14.0-2.0","","null","<p> CORRECT </p>","null","","","","","","","","","",""
"fixation-image-keyboard-release-original","8577","194265","0.0-15.0-1.0","","608.4450000198558","Stim/Stim-GB/MN_I.PNG","86","","","1","exp","100","2","0","IC","v","true"
"html-keyboard-response","8578","195376","0.0-15.0-2.0","","null","<p> CORRECT </p>","null","","","","","","","","","",""
"fixation-image-keyboard-release-original","8622","197101","0.0-16.0-1.0","","380.5100000463426","Stim/Stim-GB/NI_I.PNG","66","","","1","exp","400","1","0","C","v","false"
"html-keyboard-response","8623","198210","0.0-16.0-2.0","","null","<p> INCORRECT </p>","null","","","","","","","","","",""
"fixation-image-keyboard-release-original","8666","200078","0.0-16.1-1.1","","535.7800000347197","Stim/Stim-BG/MM_M.PNG","86","","","2","exp","700","2","1","C","b","false"
"html-keyboard-response","8667","201195","0.0-16.1-2.1","","null","<p> INCORRECT </p>","null","","","","","","","","","",""
"fixation-image-keyboard-release-original","11856","228230","0.0-16.2-1.2","","489.63999992702156","Stim/Stim-BG/II_M.PNG","86","","","2","exp","700","1","1","IC","b","false"
"html-keyboard-response","11857","229342","0.0-16.2-2.2","","null","<p> INCORRECT </p>","null","","","","","","","","","",""
"fixation-image-keyboard-release-original","11905","231206","0.0-16.3-1.3","","496.2050000904128","Stim/Stim-BG/NI_M.PNG","66","","","1","exp","100","1","1","IC","b","true"
"html-keyboard-response","11906","232337","0.0-16.3-2.3","","null","<p> CORRECT </p>","null","","","","","","","","","",""
"fixation-image-keyboard-release-original","11956","234441","0.0-17.0-1.0","","710.6149999890476","Stim/Stim-BG/MM_M.PNG","86","","","2","exp","100","2","1","C","b","false"
"html-keyboard-response","11957","235565","0.0-17.0-2.0","","null","<p> INCORRECT </p>","null","","","","","","","","","",""
"fixation-image-keyboard-release-original","12012","237528","0.0-17.1-1.1","","525.9500000393018","Stim/Stim-BG/MM_M.PNG","86","","","2","exp","100","2","1","C","b","false"
"html-keyboard-response","12013","238631","0.0-17.1-2.1","","null","<p> INCORRECT </p>","null","","","","","","","","","",""
"fixation-image-keyboard-release-original","12065","240626","0.0-17.2-1.2","","563.7049999786541","Stim/Stim-BG/NM_M.PNG","66","","","1","exp","700","2","1","C","b","true"
"html-keyboard-response","12066","241746","0.0-17.2-2.2","","null","<p> CORRECT </p>","null","","","","","","","","","",""
"call-function","12067","241748","0.0-18.0","","","","","","","","","","","","","",""
"survey-html-form","12068","251153","0.0-19.0","","9397.490000003017","","","{""hands"":""Right""}","","","","","","","","",""
"html-keyboard-response","12069","259429","0.0-20.0","","8273.46000005491","If you are using <strong><u>just</u></strong> your <strong></u>right hand</u></strong>, then good job! If not, please do so in the main part of the experiment.<br><br>Press Enter to continue","13","","","","","","","","","",""
"html-keyboard-response","12070","321704","0.0-21.0","","62272.3850000184","<div class = 'my_window'><h1>Main Trials</h1><p>Good Job! We will now begin the main trials. In the main trials, you will <strong>not</strong> get feedback. There are 192 trials overall. You will get a self-paced break every 48 trials.</p><p>Instructions Reminder: <p>Before each trial starts, please ensure that you keep the <strong><u>V key</u></strong> and <strong><u>B key</u></strong> depressed with your <strong><u>right index finger</u></strong> on the <strong><u>V key</u></strong> and your <strong><u>right middle finger</u></strong> on the <strong><u>B key</u></strong> (see image below). Responses on this experiment will consist of lifting your <strong><u>right index finger</u></strong> to release the <strong><u>V key</u></strong> if you see the letter <strong><u>I</u></strong> or lifting your <strong><u>right middle finger</u></strong> to release the <strong><u>B key</u></strong> if you see the letter <strong><u>M</u></strong> as fast as you can. It is important that you <strong><u>only use your right hand</u></strong> to do the task.</p><p><img src='keyboard_img.png'></p><p>While you complete this task, there will be a couple of hands moving in the background. Ignore them and focus on the task.</p><p>Remember: this is a reaction time experiment, so please try to respond as fast as possible while at the same time minimizing mistakes.</p><p>Press ENTER to begin.</p></div>","13","","","","","","","","","",""
"call-function","12071","321704","0.0-22.0","","","","","","","","","","","","","",""
"fixation-image-keyboard-release-original","12227","324668","0.0-23.0-1.0","","709.5449999906123","Stim/Stim-BG/MM_M.PNG","66","","","2","exp","700","2","1","C","b","true"
"fixation-image-keyboard-release-original","12320","328513","0.0-23.0-1.1","","1092.0550000155345","Stim/Stim-BG/MN_I.PNG","66","","","1","exp","100","2","0","IC","v","false"
"fixation-image-keyboard-release-original","12404","332370","0.0-23.0-1.2","","1170.3749999869615","Stim/Stim-GB/NI_M.PNG","86","","","1","exp","100","1","1","IC","b","false"
"fixation-image-keyboard-release-original","12533","335958","0.0-23.0-1.3","","569.3350000074133","Stim/Stim-BG/II_I.PNG","86","","","2","exp","100","1","0","C","v","true"
"fixation-image-keyboard-release-original","12672","339560","0.0-23.0-1.4","","461.85500000137836","Stim/Stim-BG/NI_M.PNG","66","","","1","exp","100","1","1","IC","b","true"
"fixation-image-keyboard-release-original","12731","342844","0.0-23.0-1.5","","798.7849999917671","Stim/Stim-BG/II_I.PNG","66","","","2","exp","400","1","0","C","v","false"
"fixation-image-keyboard-release-original","12773","345650","0.0-23.0-1.6","","451.4349999371916","Stim/Stim-GB/II_M.PNG","86","","","2","exp","400","1","1","IC","b","false"
"fixation-image-keyboard-release-original","12831","348661","0.0-23.0-1.7","","533.5250000935048","Stim/Stim-GB/IN_M.PNG","86","","","1","exp","100","1","1","IC","b","false"
"fixation-image-keyboard-release-original","12865","351318","0.0-23.0-1.8","","376.5499999281019","Stim/Stim-GB/IN_M.PNG","86","","","1","exp","100","1","1","IC","b","false"
"fixation-image-keyboard-release-original","12891","355131","0.0-23.0-1.9","","1602.1750000072643","Stim/Stim-GB/NI_I.PNG","66","","","1","exp","100","1","0","C","v","false"
"fixation-image-keyboard-release-original","12953","358540","0.0-23.0-1.10","","917.4149999162182","Stim/Stim-GB/MN_I.PNG","66","","","1","exp","400","2","0","IC","v","false"
"fixation-image-keyboard-release-original","12998","361443","0.0-23.0-1.11","","543.3450000127777","Stim/Stim-GB/IN_I.PNG","86","","","1","exp","100","1","0","C","v","true"
"fixation-image-keyboard-release-original","13034","364158","0.0-23.0-1.12","","416.62999999243766","Stim/Stim-GB/IN_I.PNG","86","","","1","exp","700","1","0","C","v","true"
"fixation-image-keyboard-release-original","13070","366817","0.0-23.0-1.13","","381.3650000374764","Stim/Stim-BG/NI_I.PNG","66","","","1","exp","400","1","0","C","v","false"
"fixation-image-keyboard-release-original","13080","369138","0.0-23.0-1.14","","238.57500008307397","Stim/Stim-BG/MM_I.PNG","86","","","2","exp","400","2","0","IC","v","true"
"fixation-image-keyboard-release-original","13081","372140","0.0-23.0-1.15","","983.974999981001","Stim/Stim-BG/MM_I.PNG","66","","","2","exp","400","2","0","IC","v","false"
"fixation-image-keyboard-release-original","13120","375293","0.0-23.0-1.16","","839.475000044331","Stim/Stim-GB/NI_M.PNG","86","","","1","exp","400","1","1","IC","b","false"
"fixation-image-keyboard-release-original","13156","379195","0.0-23.0-1.17","","1608.684999984689","Stim/Stim-BG/MM_I.PNG","66","","","2","exp","100","2","0","IC","v","false"
"fixation-image-keyboard-release-original","13197","382026","0.0-23.0-1.18","","510.4150000261143","Stim/Stim-GB/NI_M.PNG","66","","","1","exp","100","1","1","IC","b","true"
"fixation-image-keyboard-release-original","13264","385663","0.0-23.0-1.19","","1105.9450000757352","Stim/Stim-GB/MM_I.PNG","86","","","2","exp","700","2","0","IC","v","true"
"fixation-image-keyboard-release-original","13302","388943","0.0-23.0-1.20","","981.5749999834225","Stim/Stim-BG/IN_M.PNG","86","","","1","exp","400","1","1","IC","b","false"
"fixation-image-keyboard-release-original","13322","391708","0.0-23.0-1.21","","621.8000000808388","Stim/Stim-GB/MM_M.PNG","86","","","2","exp","700","2","1","C","b","false"
"fixation-image-keyboard-release-original","13361","394962","0.0-23.0-1.22","","945.4400000395253","Stim/Stim-GB/II_M.PNG","86","","","2","exp","400","1","1","IC","b","false"
"fixation-image-keyboard-release-original","13405","397716","0.0-23.0-1.23","","410.6550000142306","Stim/Stim-BG/NI_I.PNG","66","","","1","exp","400","1","0","C","v","false"
"fixation-image-keyboard-release-original","13446","400633","0.0-23.0-1.24","","585.1199999451637","Stim/Stim-BG/MM_I.PNG","86","","","2","exp","400","2","0","IC","v","true"
"fixation-image-keyboard-release-original","13490","403424","0.0-23.0-1.25","","443.3100000023842","Stim/Stim-BG/MM_M.PNG","86","","","2","exp","400","2","1","C","b","false"
"fixation-image-keyboard-release-original","13510","406411","0.0-23.0-1.26","","829.0399999823421","Stim/Stim-GB/II_M.PNG","86","","","2","exp","100","1","1","IC","b","false"
"fixation-image-keyboard-release-original","13511","409490","0.0-23.0-1.27","","1054.1700000176206","Stim/Stim-BG/II_I.PNG","66","","","2","exp","100","1","0","C","v","false"
"fixation-image-keyboard-release-original","13546","412572","0.0-23.0-1.28","","809.8099998896942","Stim/Stim-GB/MN_I.PNG","86","","","1","exp","400","2","0","IC","v","true"
"fixation-image-keyboard-release-original","13578","415261","0.0-23.0-1.29","","416.60500003490597","Stim/Stim-GB/IN_I.PNG","86","","","1","exp","400","1","0","C","v","true"
"fixation-image-keyboard-release-original","13617","417924","0.0-23.0-1.30","","357.615000102669","Stim/Stim-BG/NM_M.PNG","66","","","1","exp","700","2","1","C","b","true"
"fixation-image-keyboard-release-original","13649","420575","0.0-23.0-1.31","","397.7500000037253","Stim/Stim-GB/NI_I.PNG","66","","","1","exp","400","1","0","C","v","false"
"fixation-image-keyboard-release-original","13685","424970","0.0-23.0-1.32","","2107.220000005327","Stim/Stim-BG/IN_M.PNG","86","","","1","exp","100","1","1","IC","b","false"
"fixation-image-keyboard-release-original","13758","428143","0.0-23.0-1.33","","564.7899999748915","Stim/Stim-GB/NI_M.PNG","66","","","1","exp","400","1","1","IC","b","true"
"fixation-image-keyboard-release-original","13795","430789","0.0-23.0-1.34","","349.1250000661239","Stim/Stim-GB/NI_M.PNG","66","","","1","exp","700","1","1","IC","b","true"
"fixation-image-keyboard-release-original","13841","433586","0.0-23.0-1.35","","428.9949999656528","Stim/Stim-GB/II_I.PNG","86","","","2","exp","700","1","0","C","v","true"
"fixation-image-keyboard-release-original","13873","437026","0.0-23.0-1.36","","1177.0100001012906","Stim/Stim-BG/MN_M.PNG","86","","","1","exp","700","2","1","C","b","false"
"fixation-image-keyboard-release-original","13917","439747","0.0-23.0-1.37","","368.24500001966953","Stim/Stim-GB/II_I.PNG","66","","","2","exp","400","1","0","C","v","false"
"fixation-image-keyboard-release-original","13958","443112","0.0-23.0-1.38","","1048.5749999061227","Stim/Stim-BG/MM_I.PNG","66","","","2","exp","100","2","0","IC","v","false"
"fixation-image-keyboard-release-original","14025","445903","0.0-23.0-1.39","","259.84499999322","Stim/Stim-BG/IN_I.PNG","86","","","1","exp","400","1","0","C","v","true"
"fixation-image-keyboard-release-original","14050","448576","0.0-23.0-1.40","","456.3750000670552","Stim/Stim-BG/MM_I.PNG","66","","","2","exp","100","2","0","IC","v","false"
"fixation-image-keyboard-release-original","14076","451471","0.0-23.0-1.41","","689.8949999595061","Stim/Stim-BG/MN_I.PNG","86","","","1","exp","100","2","0","IC","v","true"
"fixation-image-keyboard-release-original","14108","453992","0.0-23.0-1.42","","251.22999993618578","Stim/Stim-BG/MM_M.PNG","86","","","2","exp","100","2","1","C","b","false"
"fixation-image-keyboard-release-original","14121","456852","0.0-23.0-1.43","","760.2050000568852","Stim/Stim-BG/NM_I.PNG","66","","","1","exp","100","2","0","IC","v","false"
"fixation-image-keyboard-release-original","14157","459732","0.0-23.0-1.44","","605.0099999411032","Stim/Stim-BG/II_M.PNG","86","","","2","exp","100","1","1","IC","b","false"
"fixation-image-keyboard-release-original","14168","462781","0.0-23.0-1.45","","956.1449999455363","Stim/Stim-GB/MN_M.PNG","66","","","1","exp","700","2","1","C","b","true"
"fixation-image-keyboard-release-original","14207","465902","0.0-23.0-1.46","","809.7399999387562","Stim/Stim-GB/MM_I.PNG","66","","","2","exp","400","2","0","IC","v","false"
"fixation-image-keyboard-release-original","14284","469087","0.0-23.0-1.47","","569.0050000557676","Stim/Stim-BG/IN_I.PNG","86","","","1","exp","100","1","0","C","v","true"
"html-keyboard-response","14285","473694","0.0-23.0-2.47-0.47","","3590.005000005476","Take a break. Feel free to start again by pressing Enter.","13","","","","","","","","","",""
"fixation-image-keyboard-release-original","14436","476215","0.0-23.0-1.48","","323.9899999462068","Stim/Stim-GB/MM_M.PNG","66","","","2","exp","400","2","1","C","b","true"
"fixation-image-keyboard-release-original","14521","480099","0.0-23.0-1.49","","1193.6149999964982","Stim/Stim-BG/II_I.PNG","86","","","2","exp","700","1","0","C","v","true"
"fixation-image-keyboard-release-original","14561","483700","0.0-23.0-1.50","","1277.6150000281632","Stim/Stim-BG/NI_M.PNG","66","","","1","exp","700","1","1","IC","b","true"
"fixation-image-keyboard-release-original","14597","486297","0.0-23.0-1.51","","325.52499999292195","Stim/Stim-BG/MM_M.PNG","86","","","2","exp","700","2","1","C","b","false"
"fixation-image-keyboard-release-original","14850","491046","0.0-23.0-1.52","","728.1649999786168","Stim/Stim-BG/II_M.PNG","86","","","2","exp","400","1","1","IC","b","false"
"fixation-image-keyboard-release-original","14887","493674","0.0-23.0-1.53","","325.07499994244426","Stim/Stim-BG/MN_M.PNG","86","","","1","exp","100","2","1","C","b","false"
"fixation-image-keyboard-release-original","14925","496322","0.0-23.0-1.54","","330.0400000298396","Stim/Stim-BG/NI_I.PNG","66","","","1","exp","100","1","0","C","v","false"
"fixation-image-keyboard-release-original","14966","499054","0.0-23.0-1.55","","394.79000004939735","Stim/Stim-BG/II_M.PNG","86","","","2","exp","400","1","1","IC","b","false"
"fixation-image-keyboard-release-original","15005","501697","0.0-23.0-1.56","","311.6649999283254","Stim/Stim-BG/IN_I.PNG","86","","","1","exp","100","1","0","C","v","true"
"fixation-image-keyboard-release-original","15038","504245","0.0-23.0-1.57","","294.2399999592453","Stim/Stim-GB/MM_I.PNG","86","","","2","exp","100","2","0","IC","v","true"
"fixation-image-keyboard-release-original","15067","506786","0.0-23.0-1.58","","298.88999997638166","Stim/Stim-GB/II_I.PNG","66","","","2","exp","400","1","0","C","v","false"
"fixation-image-keyboard-release-original","15103","509842","0.0-23.0-1.59","","751.7349999397993","Stim/Stim-GB/NM_I.PNG","66","","","1","exp","400","2","0","IC","v","false"
"fixation-image-keyboard-release-original","15156","512709","0.0-23.0-1.60","","420.9700000938028","Stim/Stim-GB/MM_M.PNG","86","","","2","exp","700","2","1","C","b","false"
"fixation-image-keyboard-release-original","15232","516101","0.0-23.0-1.61","","795.0300000375137","Stim/Stim-GB/MN_M.PNG","66","","","1","exp","100","2","1","C","b","true"
"fixation-image-keyboard-release-original","15277","519025","0.0-23.0-1.62","","568.8150000059977","Stim/Stim-GB/IN_I.PNG","66","","","1","exp","100","1","0","C","v","false"
"fixation-image-keyboard-release-original","15296","521826","0.0-23.0-1.63","","639.9550000205636","Stim/Stim-GB/MM_M.PNG","86","","","2","exp","400","2","1","C","b","false"
"fixation-image-keyboard-release-original","15297","524869","0.0-23.0-1.64","","1030.5149999912828","Stim/Stim-GB/II_I.PNG","66","","","2","exp","700","1","0","C","v","false"
"fixation-image-keyboard-release-original","15357","528270","0.0-23.0-1.65","","914.8300000233576","Stim/Stim-GB/IN_M.PNG","86","","","1","exp","400","1","1","IC","b","false"
"fixation-image-keyboard-release-original","15518","533181","0.0-23.0-1.66","","1626.4250000240281","Stim/Stim-GB/MM_I.PNG","66","","","2","exp","700","2","0","IC","v","false"
"fixation-image-keyboard-release-original","15572","536377","0.0-23.0-1.67","","760.1700000232086","Stim/Stim-GB/MM_I.PNG","66","","","2","exp","700","2","0","IC","v","false"
"fixation-image-keyboard-release-original","15638","540105","0.0-23.0-1.68","","1208.7400000309572","Stim/Stim-BG/NI_M.PNG","66","","","1","exp","400","1","1","IC","b","true"
"fixation-image-keyboard-release-original","15797","544422","0.0-23.0-1.69","","1040.2699999976903","Stim/Stim-BG/II_M.PNG","66","","","2","exp","100","1","1","IC","b","true"
"fixation-image-keyboard-release-original","15856","547536","0.0-23.0-1.70","","634.0799999888986","Stim/Stim-GB/NM_I.PNG","66","","","1","exp","400","2","0","IC","v","false"
"fixation-image-keyboard-release-original","15901","550914","0.0-23.0-1.71","","1022.484999964945","Stim/Stim-BG/NM_M.PNG","86","","","1","exp","700","2","1","C","b","false"
"fixation-image-keyboard-release-original","15939","554290","0.0-23.0-1.72","","1086.1849999055266","Stim/Stim-BG/IN_M.PNG","86","","","1","exp","700","1","1","IC","b","false"
"fixation-image-keyboard-release-original","15976","556974","0.0-23.0-1.73","","370.75999996159226","Stim/Stim-BG/IN_M.PNG","86","","","1","exp","400","1","1","IC","b","false"
"fixation-image-keyboard-release-original","15997","559755","0.0-23.0-1.74","","621.8600000720471","Stim/Stim-GB/II_I.PNG","86","","","2","exp","100","1","0","C","v","true"
"fixation-image-keyboard-release-original","16017","562441","0.0-23.0-1.75","","529.8050000565127","Stim/Stim-BG/MM_M.PNG","66","","","2","exp","100","2","1","C","b","true"
"fixation-image-keyboard-release-original","16057","565101","0.0-23.0-1.76","","331.3900000648573","Stim/Stim-GB/II_I.PNG","66","","","2","exp","100","1","0","C","v","false"
"fixation-image-keyboard-release-original","16075","567566","0.0-23.0-1.77","","312.8850000211969","Stim/Stim-GB/II_I.PNG","86","","","2","exp","400","1","0","C","v","true"
"fixation-image-keyboard-release-original","16096","570273","0.0-23.0-1.78","","546.0599999642","Stim/Stim-BG/NI_M.PNG","66","","","1","exp","100","1","1","IC","b","true"
"fixation-image-keyboard-release-original","16140","573068","0.0-23.0-1.79","","437.1800000080839","Stim/Stim-BG/MN_M.PNG","86","","","1","exp","700","2","1","C","b","false"
"fixation-image-keyboard-release-original","16172","575644","0.0-23.0-1.80","","336.81499992962927","Stim/Stim-BG/MM_I.PNG","66","","","2","exp","700","2","0","IC","v","false"
"fixation-image-keyboard-release-original","16205","578202","0.0-23.0-1.81","","293.4499999973923","Stim/Stim-GB/II_M.PNG","66","","","2","exp","700","1","1","IC","b","true"
"fixation-image-keyboard-release-original","16253","581131","0.0-23.0-1.82","","537.694999948144","Stim/Stim-BG/MN_M.PNG","66","","","1","exp","400","2","1","C","b","true"
"fixation-image-keyboard-release-original","16286","583824","0.0-23.0-1.83","","425.50500005017966","Stim/Stim-BG/MN_M.PNG","66","","","1","exp","100","2","1","C","b","true"
"fixation-image-keyboard-release-original","16312","586295","0.0-23.0-1.84","","263.85500002652407","Stim/Stim-BG/IN_I.PNG","66","","","1","exp","700","1","0","C","v","false"
"fixation-image-keyboard-release-original","16350","589208","0.0-23.0-1.85","","599.1199999116361","Stim/Stim-GB/MN_I.PNG","66","","","1","exp","700","2","0","IC","v","false"
"fixation-image-keyboard-release-original","16389","592034","0.0-23.0-1.86","","504.89500002004206","Stim/Stim-GB/NM_M.PNG","66","","","1","exp","100","2","1","C","b","true"
"fixation-image-keyboard-release-original","16425","595010","0.0-23.0-1.87","","684.2799999285489","Stim/Stim-GB/MM_M.PNG","86","","","2","exp","100","2","1","C","b","false"
"fixation-image-keyboard-release-original","16463","597677","0.0-23.0-1.88","","372.22499994095415","Stim/Stim-BG/NM_M.PNG","66","","","1","exp","400","2","1","C","b","true"
"fixation-image-keyboard-release-original","16502","600550","0.0-23.0-1.89","","573.7949999747798","Stim/Stim-GB/II_I.PNG","86","","","2","exp","700","1","0","C","v","true"
"fixation-image-keyboard-release-original","16534","603140","0.0-23.0-1.90","","344.87500006798655","Stim/Stim-BG/II_I.PNG","86","","","2","exp","400","1","0","C","v","true"
"fixation-image-keyboard-release-original","16569","605907","0.0-23.0-1.91","","489.7849999833852","Stim/Stim-GB/MN_I.PNG","86","","","1","exp","700","2","0","IC","v","true"
"fixation-image-keyboard-release-original","16606","608473","0.0-23.0-1.92","","269.6250000735745","Stim/Stim-GB/NI_M.PNG","66","","","1","exp","700","1","1","IC","b","true"
"fixation-image-keyboard-release-original","16636","610837","0.0-23.0-1.93","","135.08500007446855","Stim/Stim-GB/NM_I.PNG","66","","","1","exp","700","2","0","IC","v","false"
"fixation-image-keyboard-release-original","16677","613465","0.0-23.0-1.94","","311.1849999986589","Stim/Stim-BG/MM_M.PNG","66","","","2","exp","700","2","1","C","b","true"
"fixation-image-keyboard-release-original","16699","616002","0.0-23.0-1.95","","347.3150000208989","Stim/Stim-BG/II_I.PNG","66","","","2","exp","700","1","0","C","v","false"
"html-keyboard-response","16700","618722","0.0-23.0-2.95-0.95","","1710.7650000834838","Take a break. Feel free to start again by pressing Enter.","13","","","","","","","","","",""
"fixation-image-keyboard-release-original","17124","623577","0.0-23.0-1.96","","492.86999995820224","Stim/Stim-BG/NM_I.PNG","66","","","1","exp","100","2","0","IC","v","false"
"fixation-image-keyboard-release-original","17153","626328","0.0-23.0-1.97","","511.0449999338016","Stim/Stim-BG/IN_I.PNG","86","","","1","exp","700","1","0","C","v","true"
"fixation-image-keyboard-release-original","17191","629151","0.0-23.0-1.98","","544.4300000090152","Stim/Stim-GB/II_M.PNG","86","","","2","exp","700","1","1","IC","b","false"
"fixation-image-keyboard-release-original","17225","632150","0.0-23.0-1.99","","722.6899999659508","Stim/Stim-GB/MM_M.PNG","66","","","2","exp","100","2","1","C","b","true"
"fixation-image-keyboard-release-original","17257","635536","0.0-23.0-1.100","","1128.0350000597537","Stim/Stim-BG/II_M.PNG","86","","","2","exp","700","1","1","IC","b","false"
"fixation-image-keyboard-release-original","17292","638803","0.0-23.0-1.101","","987.0900000678375","Stim/Stim-BG/II_M.PNG","66","","","2","exp","100","1","1","IC","b","true"
"fixation-image-keyboard-release-original","17297","641171","0.0-23.0-1.102","","342.89999993052334","Stim/Stim-GB/NM_I.PNG","66","","","1","exp","100","2","0","IC","v","false"
"fixation-image-keyboard-release-original","17324","643654","0.0-23.0-1.103","","259.73499997053295","Stim/Stim-GB/II_M.PNG","66","","","2","exp","100","1","1","IC","b","true"
"fixation-image-keyboard-release-original","17361","646162","0.0-23.0-1.104","","220.1150000328198","Stim/Stim-GB/II_I.PNG","86","","","2","exp","400","1","0","C","v","true"
"fixation-image-keyboard-release-original","17395","648928","0.0-23.0-1.105","","502.1750000305474","Stim/Stim-BG/II_M.PNG","86","","","2","exp","100","1","1","IC","b","false"
"fixation-image-keyboard-release-original","17421","651818","0.0-23.0-1.106","","687.2299999231473","Stim/Stim-GB/MN_I.PNG","86","","","1","exp","100","2","0","IC","v","true"
"fixation-image-keyboard-release-original","17459","654537","0.0-23.0-1.107","","410.81500006839633","Stim/Stim-BG/MM_I.PNG","66","","","2","exp","700","2","0","IC","v","false"
"fixation-image-keyboard-release-original","17494","657071","0.0-23.0-1.108","","265.65499999560416","Stim/Stim-GB/II_M.PNG","66","","","2","exp","400","1","1","IC","b","true"
"fixation-image-keyboard-release-original","17531","659617","0.0-23.0-1.109","","251.61999999545515","Stim/Stim-GB/IN_M.PNG","86","","","1","exp","400","1","1","IC","b","false"
"fixation-image-keyboard-release-original","17561","662140","0.0-23.0-1.110","","281.0499999905005","Stim/Stim-GB/NI_I.PNG","66","","","1","exp","700","1","0","C","v","false"
"fixation-image-keyboard-release-original","17590","664815","0.0-23.0-1.111","","449.4399999966845","Stim/Stim-GB/NI_I.PNG","66","","","1","exp","700","1","0","C","v","false"
"fixation-image-keyboard-release-original","17623","667787","0.0-23.0-1.112","","711.4000000292435","Stim/Stim-GB/IN_M.PNG","86","","","1","exp","700","1","1","IC","b","false"
"fixation-image-keyboard-release-original","17657","670804","0.0-23.0-1.113","","742.3199999611825","Stim/Stim-GB/NM_M.PNG","66","","","1","exp","700","2","1","C","b","true"
"fixation-image-keyboard-release-original","17679","674146","0.0-23.0-1.114","","1185.179999913089","Stim/Stim-GB/NM_I.PNG","66","","","1","exp","700","2","0","IC","v","false"
"fixation-image-keyboard-release-original","17708","676865","0.0-23.0-1.115","","491.50500004179776","Stim/Stim-BG/NM_M.PNG","86","","","1","exp","100","2","1","C","b","false"
"fixation-image-keyboard-release-original","17742","679621","0.0-23.0-1.116","","499.3150000227615","Stim/Stim-BG/II_M.PNG","86","","","2","exp","700","1","1","IC","b","false"
"fixation-image-keyboard-release-original","17779","682648","0.0-23.0-1.117","","717.6099999342114","Stim/Stim-GB/MN_M.PNG","86","","","1","exp","400","2","1","C","b","false"
"fixation-image-keyboard-release-original","17816","685446","0.0-23.0-1.118","","513.2750000339001","Stim/Stim-GB/II_M.PNG","86","","","2","exp","400","1","1","IC","b","false"
"fixation-image-keyboard-release-original","17848","688075","0.0-23.0-1.119","","358.33000007551163","Stim/Stim-BG/NI_I.PNG","66","","","1","exp","700","1","0","C","v","false"
"fixation-image-keyboard-release-original","17873","691218","0.0-23.0-1.120","","936.60000001546","Stim/Stim-BG/II_I.PNG","66","","","2","exp","100","1","0","C","v","false"
"fixation-image-keyboard-release-original","17897","694755","0.0-23.0-1.121","","1334.9550000857562","Stim/Stim-BG/MM_M.PNG","86","","","2","exp","400","2","1","C","b","false"
"fixation-image-keyboard-release-original","17916","698118","0.0-23.0-1.122","","1207.7449999051169","Stim/Stim-BG/II_I.PNG","66","","","2","exp","700","1","0","C","v","false"
"fixation-image-keyboard-release-original","17947","700554","0.0-23.0-1.123","","184.23500005155802","Stim/Stim-GB/MN_I.PNG","86","","","1","exp","100","2","0","IC","v","true"
"fixation-image-keyboard-release-original","17970","703012","0.0-23.0-1.124","","272.4150000140071","Stim/Stim-GB/NM_M.PNG","66","","","1","exp","700","2","1","C","b","true"
"fixation-image-keyboard-release-original","17989","705630","0.0-23.0-1.125","","480.61999992933124","Stim/Stim-GB/MM_M.PNG","86","","","2","exp","100","2","1","C","b","false"
"fixation-image-keyboard-release-original","18008","708254","0.0-23.0-1.126","","468.19499996490777","Stim/Stim-BG/MN_I.PNG","86","","","1","exp","400","2","0","IC","v","true"
"fixation-image-keyboard-release-original","18043","710827","0.0-23.0-1.127","","285.9700000844896","Stim/Stim-GB/NI_I.PNG","86","","","1","exp","400","1","0","C","v","true"
"fixation-image-keyboard-release-original","18077","713286","0.0-23.0-1.128","","187.53500003367662","Stim/Stim-BG/MM_I.PNG","66","","","2","exp","400","2","0","IC","v","false"
"fixation-image-keyboard-release-original","18107","715641","0.0-23.0-1.129","","109.85999996773899","Stim/Stim-GB/MN_M.PNG","86","","","1","exp","100","2","1","C","b","false"
"fixation-image-keyboard-release-original","18135","718027","0.0-23.0-1.130","","149.23500001896173","Stim/Stim-GB/IN_M.PNG","66","","","1","exp","700","1","1","IC","b","true"
"fixation-image-keyboard-release-original","18161","720938","0.0-23.0-1.131","","716.3549999240786","Stim/Stim-GB/NM_I.PNG","66","","","1","exp","100","2","0","IC","v","false"
"fixation-image-keyboard-release-original","18187","723352","0.0-23.0-1.132","","196.77499996032566","Stim/Stim-GB/II_I.PNG","66","","","2","exp","100","1","0","C","v","false"
"fixation-image-keyboard-release-original","18204","725769","0.0-23.0-1.133","","282.7250000555068","Stim/Stim-BG/MM_M.PNG","86","","","2","exp","400","2","1","C","b","false"
"fixation-image-keyboard-release-original","18224","728200","0.0-23.0-1.134","","262.9700000397861","Stim/Stim-BG/IN_M.PNG","86","","","1","exp","700","1","1","IC","b","false"
"fixation-image-keyboard-release-original","18249","730611","0.0-23.0-1.135","","219.1099999472499","Stim/Stim-GB/MN_M.PNG","66","","","1","exp","700","2","1","C","b","true"
"fixation-image-keyboard-release-original","18285","733127","0.0-23.0-1.136","","228.2450000056997","Stim/Stim-BG/II_M.PNG","86","","","2","exp","400","1","1","IC","b","false"
"fixation-image-keyboard-release-original","18298","735339","0.0-23.0-1.137","","113.00499993376434","Stim/Stim-BG/IN_M.PNG","86","","","1","exp","100","1","1","IC","b","false"
"fixation-image-keyboard-release-original","18318","737694","0.0-23.0-1.138","","207.09500007797033","Stim/Stim-BG/NM_I.PNG","86","","","1","exp","700","2","0","IC","v","true"
"fixation-image-keyboard-release-original","18350","740236","0.0-23.0-1.139","","290.77500000130385","Stim/Stim-GB/MM_M.PNG","66","","","2","exp","100","2","1","C","b","true"
"fixation-image-keyboard-release-original","18363","743086","0.0-23.0-1.140","","744.5099999895319","Stim/Stim-BG/NI_I.PNG","66","","","1","exp","100","1","0","C","v","false"
"fixation-image-keyboard-release-original","18364","746458","0.0-23.0-1.141","","1361.5699999500066","Stim/Stim-BG/II_I.PNG","66","","","2","exp","700","1","0","C","v","false"
"fixation-image-keyboard-release-original","18367","748721","0.0-23.0-1.142","","243.57499997131526","Stim/Stim-BG/II_M.PNG","66","","","2","exp","700","1","1","IC","b","true"
"fixation-image-keyboard-release-original","18372","751084","0.0-23.0-1.143","","330.5700001074001","Stim/Stim-GB/NM_M.PNG","66","","","1","exp","400","2","1","C","b","true"
"html-keyboard-response","18373","753445","0.0-23.0-2.143-0.143","","1359.2300000600517","Take a break. Feel free to start again by pressing Enter.","13","","","","","","","","","",""
"fixation-image-keyboard-release-original","18572","756665","0.0-23.0-1.144","","633.8250000262633","Stim/Stim-BG/MN_M.PNG","66","","","1","exp","400","2","1","C","b","true"
"fixation-image-keyboard-release-original","18604","759410","0.0-23.0-1.145","","500.05499995313585","Stim/Stim-BG/NM_I.PNG","66","","","1","exp","700","2","0","IC","v","false"
"fixation-image-keyboard-release-original","18627","762132","0.0-23.0-1.146","","530.7950000278652","Stim/Stim-GB/II_M.PNG","86","","","2","exp","100","1","1","IC","b","false"
"fixation-image-keyboard-release-original","18656","764917","0.0-23.0-1.147","","561.6600000066683","Stim/Stim-GB/IN_I.PNG","86","","","1","exp","700","1","0","C","v","true"
"fixation-image-keyboard-release-original","18688","767727","0.0-23.0-1.148","","537.914999993518","Stim/Stim-BG/MM_M.PNG","86","","","2","exp","700","2","1","C","b","false"
"fixation-image-keyboard-release-original","18718","770472","0.0-23.0-1.149","","506.9900000235066","Stim/Stim-BG/MM_M.PNG","86","","","2","exp","400","2","1","C","b","false"
"fixation-image-keyboard-release-original","18746","773418","0.0-23.0-1.150","","704.0049999486655","Stim/Stim-GB/MM_I.PNG","66","","","2","exp","100","2","0","IC","v","false"
"fixation-image-keyboard-release-original","18779","775949","0.0-23.0-1.151","","275.9150000056252","Stim/Stim-GB/II_M.PNG","66","","","2","exp","100","1","1","IC","b","true"
"fixation-image-keyboard-release-original","18809","778951","0.0-23.0-1.152","","767.8500000620261","Stim/Stim-GB/II_I.PNG","86","","","2","exp","700","1","0","C","v","true"
"fixation-image-keyboard-release-original","18841","782143","0.0-23.0-1.153","","939.2750000115484","Stim/Stim-GB/MM_I.PNG","66","","","2","exp","700","2","0","IC","v","false"
"fixation-image-keyboard-release-original","18880","784890","0.0-23.0-1.154","","442.30999995488673","Stim/Stim-BG/NI_M.PNG","66","","","1","exp","700","1","1","IC","b","true"
"fixation-image-keyboard-release-original","18914","787706","0.0-23.0-1.155","","551.3499999651685","Stim/Stim-GB/MM_M.PNG","86","","","2","exp","400","2","1","C","b","false"
"fixation-image-keyboard-release-original","18948","790274","0.0-23.0-1.156","","303.23499999940395","Stim/Stim-GB/IN_I.PNG","86","","","1","exp","400","1","0","C","v","true"
"fixation-image-keyboard-release-original","18984","792910","0.0-23.0-1.157","","347.20499999821186","Stim/Stim-GB/NM_M.PNG","66","","","1","exp","100","2","1","C","b","true"
"fixation-image-keyboard-release-original","19016","795591","0.0-23.0-1.158","","418.91500004567206","Stim/Stim-BG/MM_M.PNG","66","","","2","exp","100","2","1","C","b","true"
"fixation-image-keyboard-release-original","19041","798463","0.0-23.0-1.159","","679.2849999619648","Stim/Stim-GB/II_I.PNG","86","","","2","exp","100","1","0","C","v","true"
"fixation-image-keyboard-release-original","19058","801453","0.0-23.0-1.160","","852.6500000152737","Stim/Stim-BG/MN_I.PNG","66","","","1","exp","700","2","0","IC","v","false"
"fixation-image-keyboard-release-original","19084","804068","0.0-23.0-1.161","","412.48499997891486","Stim/Stim-BG/NM_I.PNG","66","","","1","exp","400","2","0","IC","v","false"
"fixation-image-keyboard-release-original","19107","807414","0.0-23.0-1.162","","1158.5399999748915","Stim/Stim-GB/MN_M.PNG","86","","","1","exp","400","2","1","C","b","false"
"fixation-image-keyboard-release-original","19137","810553","0.0-23.0-1.163","","895.7200000295416","Stim/Stim-BG/II_M.PNG","66","","","2","exp","700","1","1","IC","b","true"
"fixation-image-keyboard-release-original","19171","813079","0.0-23.0-1.164","","253.35999997332692","Stim/Stim-BG/NM_I.PNG","86","","","1","exp","400","2","0","IC","v","true"
"fixation-image-keyboard-release-original","19172","815843","0.0-23.0-1.165","","752.9399999184534","Stim/Stim-BG/MM_I.PNG","66","","","2","exp","700","2","0","IC","v","false"
"fixation-image-keyboard-release-original","19184","818384","0.0-23.0-1.166","","455.36500005982816","Stim/Stim-BG/NI_I.PNG","66","","","1","exp","700","1","0","C","v","false"
"fixation-image-keyboard-release-original","19200","821010","0.0-23.0-1.167","","501.12500006798655","Stim/Stim-GB/II_M.PNG","86","","","2","exp","700","1","1","IC","b","false"
"fixation-image-keyboard-release-original","19201","823551","0.0-23.0-1.168","","533.4899999434128","Stim/Stim-BG/IN_I.PNG","86","","","1","exp","400","1","0","C","v","true"
"fixation-image-keyboard-release-original","19223","825980","0.0-23.0-1.169","","254.1200000559911","Stim/Stim-GB/MM_I.PNG","66","","","2","exp","100","2","0","IC","v","false"
"fixation-image-keyboard-release-original","19250","828759","0.0-23.0-1.170","","573.560000048019","Stim/Stim-BG/II_M.PNG","86","","","2","exp","400","1","1","IC","b","false"
"fixation-image-keyboard-release-original","19274","831318","0.0-23.0-1.171","","377.9400000348687","Stim/Stim-GB/MM_M.PNG","66","","","2","exp","700","2","1","C","b","true"
"fixation-image-keyboard-release-original","19307","833814","0.0-23.0-1.172","","240.97000004258007","Stim/Stim-BG/MN_I.PNG","86","","","1","exp","700","2","0","IC","v","true"
"fixation-image-keyboard-release-original","19322","836392","0.0-23.0-1.173","","454.2549999896437","Stim/Stim-BG/II_I.PNG","86","","","2","exp","100","1","0","C","v","true"
"fixation-image-keyboard-release-original","19339","839219","0.0-23.0-1.174","","706.5299999667332","Stim/Stim-BG/II_I.PNG","66","","","2","exp","400","1","0","C","v","false"
"fixation-image-keyboard-release-original","19366","841710","0.0-23.0-1.175","","268.8999999081716","Stim/Stim-GB/MM_I.PNG","86","","","2","exp","100","2","0","IC","v","true"
"fixation-image-keyboard-release-original","19396","844162","0.0-23.0-1.176","","225.65499995835125","Stim/Stim-BG/MM_M.PNG","66","","","2","exp","100","2","1","C","b","true"
"fixation-image-keyboard-release-original","19426","846510","0.0-23.0-1.177","","116.32999998982996","Stim/Stim-BG/NM_M.PNG","66","","","1","exp","400","2","1","C","b","true"
"fixation-image-keyboard-release-original","19457","848945","0.0-23.0-1.178","","198.8649999257177","Stim/Stim-BG/MM_I.PNG","86","","","2","exp","100","2","0","IC","v","true"
"fixation-image-keyboard-release-original","19463","851210","0.0-23.0-1.179","","222.82999998424202","Stim/Stim-GB/MM_M.PNG","86","","","2","exp","400","2","1","C","b","false"
"fixation-image-keyboard-release-original","19478","853485","0.0-23.0-1.180","","165.48999992664903","Stim/Stim-GB/MM_I.PNG","66","","","2","exp","400","2","0","IC","v","false"
"fixation-image-keyboard-release-original","19490","855711","0.0-23.0-1.181","","126.82000000495464","Stim/Stim-BG/II_I.PNG","86","","","2","exp","400","1","0","C","v","true"
"fixation-image-keyboard-release-original","19495","857923","0.0-23.0-1.182","","188.65499994717538","Stim/Stim-GB/NI_I.PNG","66","","","1","exp","100","1","0","C","v","false"
"fixation-image-keyboard-release-original","19511","860551","0.0-23.0-1.183","","514.3549999920651","Stim/Stim-GB/MM_I.PNG","66","","","2","exp","400","2","0","IC","v","false"
"fixation-image-keyboard-release-original","19512","862938","0.0-23.0-1.184","","378.80499998573214","Stim/Stim-BG/NI_M.PNG","66","","","1","exp","400","1","1","IC","b","true"
"fixation-image-keyboard-release-original","19520","865294","0.0-23.0-1.185","","290.4600000474602","Stim/Stim-GB/II_M.PNG","66","","","2","exp","700","1","1","IC","b","true"
"fixation-image-keyboard-release-original","19521","867520","0.0-23.0-1.186","","205.11500001884997","Stim/Stim-GB/MM_M.PNG","66","","","2","exp","700","2","1","C","b","true"
"fixation-image-keyboard-release-original","19536","869861","0.0-23.0-1.187","","203.52500001899898","Stim/Stim-BG/NM_M.PNG","66","","","1","exp","100","2","1","C","b","true"
"fixation-image-keyboard-release-original","19567","872366","0.0-23.0-1.188","","266.7699999874458","Stim/Stim-GB/MM_I.PNG","66","","","2","exp","400","2","0","IC","v","false"
"fixation-image-keyboard-release-original","19581","874903","0.0-23.0-1.189","","433.63500002305955","Stim/Stim-GB/NM_M.PNG","66","","","1","exp","400","2","1","C","b","true"
"fixation-image-keyboard-release-original","19608","877639","0.0-23.0-1.190","","526.549999951385","Stim/Stim-BG/MN_I.PNG","86","","","1","exp","400","2","0","IC","v","true"
"fixation-image-keyboard-release-original","19646","880584","0.0-23.0-1.191","","637.8900000127032","Stim/Stim-BG/MM_I.PNG","66","","","2","exp","700","2","0","IC","v","false"
"call-function","19647","881591","0.0-24.0","","","","","","","","","","","","","",""
"survey-html-form","19648","886201","0.0-25.0","","4602.010000031441","","","{""hands2"":""Right""}","","","","","","","","",""
"html-keyboard-response","19649","896589","0.0-26.0","","10387.93500000611","<p><h1>This is the end of the experiment.</h1></p><p>Please <a href='Debrief.pdf' target='_blank'>Click Here</a> (this will open a new window) to read more about the study.</p><p>Press ENTER to end the experiment (you will be sent to Prolific - if something goes wrong, the completion code for this study is: 3F11CBBF).</p>","13","","","","","","","","","",""
