"trial_type","trial_index","time_elapsed","internal_node_id","value","rt","stimulus","key_press","responses","success","hand","test","gap","finger","cue","con","correct_response","correct"
"pavlovia","0","4","0.0-0.0","","","","","","","","","","","","","",""
"call-function","1","5","0.0-1.0","","","","","","","","","","","","","",""
"html-keyboard-response","2","29265","0.0-2.0","","29258.594999992056","<div class = 'my_window'><p><h1>Welcome!</h1><br><p><p>This experiment is adminterested by Carl Michael Galang (McMaster University), Dr. Emiel Cracco (Ghent University), Dr. Marcel Brass (Humboldt University of Berlin), & Dr. Sukhvinder Obhi (McMaster University).</p><p>The purpose of this study is to explore basic perceptual processing mechanisms.</p><p>Information gathered during this study will be written up for publication in an academic journal. While there are no direct benefits to you taking part in this study (other than learning more about the research topic and getting paid on Prolific), the results of this study will provide us with a better understanding of perceptual and sensory processes. To learn about this study, particularly in the terms of any associated risks or harms, how confidentiality and anonymity will be handled, withdrawal procedures, incentives that are promised, how to obtain information about the results, etc., please read the accompanying letter of information - <a href='LOI.pdf' target='_blank'>Click Here</a> (this will open a new window).</p><p>This study should take around 10min to complete.</p><p>If you have questions or need more information about the study itself, please contact me at: galangc@mcmaster.ca. This study has been reviewed by the McMaster University Research Ethics Board and received ethics clearance. If you have concerns or questions about your rights as a participant or about the way the study is conducted, please contact the McMaster Research Ethics Secretariat at ethicsoffice@mcmaster.ca.</p><br><p><h1>CONSENT</h1></p><p>I have read the information presented in the letter of information and I agree to participate in this study.</p><p>By pressing Enter, I consent to the above.<p>","13","","","","","","","","","",""
"survey-html-form","3","37368","0.0-3.0","","8101.075000013225","","","{""1"":""601bcb67baed0a5be605dc59""}","","","","","","","","",""
"fullscreen","4","1255713","0.0-4.0","","","","","","true","","","","","","","",""
"call-function","5","1255716","0.0-5.0","","","","","","","","","","","","","",""
"html-keyboard-response","6","1259657","0.0-6.0","","3937.6350000093225","<div class = 'my_window'><h1>Instructions</h1><p>Your task in this experiment is to respond to the letters I or M as they appear on the screen. Unlike most experiments, your task will be to <strong><u>release</u></strong> keys (not push).</p><p>Before each trial starts, please ensure that you keep the <strong><u>V key</u></strong> and <strong><u>B key</u></strong> depressed with your <strong><u>right index finger</u></strong> on the <strong><u>V key</u></strong> and your <strong><u>right middle finger</u></strong> on the <strong><u>B key</u></strong> (see image below). Responses on this experiment will consist of lifting your <strong><u>right index finger</u></strong> to release the <strong><u>V key</u></strong> if you see the letter <strong><u>I</u></strong> or lifting your <strong><u>right middle finger</u></strong> to release the <strong><u>B key</u></strong> if you see the letter <strong><u>M</u></strong> as fast as you can. It is important that you <strong><u>only use your right hand</u></strong> to do the task.</p><p><img src='keyboard_img.png'></p><p>While you complete this task, there will be a couple of hands moving in the background. Ignore them and focus on the task.</p><p>Press ENTER to continue.</p></div>","13","","","","","","","","","",""
"html-keyboard-response","7","1260703","0.0-7.0","","1045.3249999845866","<div class = 'my_window'><h1>Practice</h1><p>You will first do a practice phase. In the practice phase, you will get feedback on your performance. The practice phase contains 10 trials, but will add an extra trial every time you respond incorrectly.</p><p><p>Before each trial starts, please ensure that you keep the <strong><u>V key</u></strong> and <strong><u>B key</u></strong> depressed with your <strong><u>right index finger</u></strong> on the <strong><u>V key</u></strong> and your <strong><u>right middle finger</u></strong> on the <strong><u>B key</u></strong> (see image below). Responses on this experiment will consist of lifting your <strong><u>right index finger</u></strong> to release the <strong><u>V key</u></strong> if you see the letter <strong><u>I</u></strong> or lifting your <strong><u>right middle finger</u></strong> to release the <strong><u>B key</u></strong> if you see the letter <strong><u>M</u></strong> as fast as you can. It is important that you <strong><u>only use your right hand</u></strong> to do the task.</p><p><img src='keyboard_img.png'></p><p>While you complete this task, there will be a couple of hands moving in the background. Ignore them and focus on the task.</p><p>This is a reaction time experiment, so please try to respond as fast as possible while at the same time minimizing mistakes.</p><p>Press ENTER to begin.</p></div>","13","","","","","","","","","",""
"fixation-image-keyboard-release-original","1132","1268848","0.0-8.0-1.0","","844.2900000081863","Stim/Stim-BG/MM_I.PNG","86","","","2","exp","400","2","0","IC","v","true"
"html-keyboard-response","1133","1269952","0.0-8.0-2.0","","null","<p> CORRECT </p>","null","","","","","","","","","",""
"fixation-image-keyboard-release-original","1332","1274648","0.0-9.0-1.0","","2626.5699999930803","Stim/Stim-GB/NM_M.PNG","86","","","1","exp","700","2","1","C","b","false"
"html-keyboard-response","1333","1275749","0.0-9.0-2.0","","null","<p> INCORRECT </p>","null","","","","","","","","","",""
"fixation-image-keyboard-release-original","1572","1278728","0.0-9.1-1.1","","709.9849999940488","Stim/Stim-BG/NI_I.PNG","66","","","1","exp","400","1","0","C","v","false"
"html-keyboard-response","1573","1279830","0.0-9.1-2.1","","null","<p> INCORRECT </p>","null","","","","","","","","","",""
"fixation-image-keyboard-release-original","1621","1281391","0.0-9.2-1.2","","309.42000000504777","Stim/Stim-BG/NI_I.PNG","86","","","1","exp","700","1","0","C","v","true"
"html-keyboard-response","1622","1282492","0.0-9.2-2.2","","null","<p> CORRECT </p>","null","","","","","","","","","",""
"fixation-image-keyboard-release-original","1859","1285040","0.0-10.0-1.0","","267.93000000179745","Stim/Stim-GB/MM_M.PNG","66","","","2","exp","400","2","1","C","b","true"
"html-keyboard-response","1860","1286144","0.0-10.0-2.0","","null","<p> CORRECT </p>","null","","","","","","","","","",""
"fixation-image-keyboard-release-original","1951","1287975","0.0-11.0-1.0","","354.4650000112597","Stim/Stim-BG/MN_I.PNG","86","","","1","exp","400","2","0","IC","v","true"
"html-keyboard-response","1952","1289077","0.0-11.0-2.0","","null","<p> CORRECT </p>","null","","","","","","","","","",""
"fixation-image-keyboard-release-original","1994","1290711","0.0-12.0-1.0","","412.5300000014249","Stim/Stim-BG/IN_M.PNG","86","","","1","exp","400","1","1","IC","b","false"
"html-keyboard-response","1995","1291815","0.0-12.0-2.0","","null","<p> INCORRECT </p>","null","","","","","","","","","",""
"fixation-image-keyboard-release-original","2085","1294327","0.0-12.1-1.1","","1026.5150000050198","Stim/Stim-GB/NM_I.PNG","66","","","1","exp","400","2","0","IC","v","false"
"html-keyboard-response","2086","1295430","0.0-12.1-2.1","","null","<p> INCORRECT </p>","null","","","","","","","","","",""
"fixation-image-keyboard-release-original","2142","1297383","0.0-12.2-1.2","","655.02999999444","Stim/Stim-GB/NI_M.PNG","86","","","1","exp","100","1","1","IC","b","false"
"html-keyboard-response","2143","1298485","0.0-12.2-2.2","","null","<p> INCORRECT </p>","null","","","","","","","","","",""
"fixation-image-keyboard-release-original","2195","1301031","0.0-12.3-1.3","","1269.0050000092015","Stim/Stim-BG/II_M.PNG","86","","","2","exp","400","1","1","IC","b","false"
"html-keyboard-response","2196","1302134","0.0-12.3-2.3","","null","<p> INCORRECT </p>","null","","","","","","","","","",""
"fixation-image-keyboard-release-original","3613","1313247","0.0-12.4-1.4","","2456.995000015013","Stim/Stim-GB/NM_M.PNG","66","","","1","exp","400","2","1","C","b","true"
"html-keyboard-response","3614","1314352","0.0-12.4-2.4","","null","<p> CORRECT </p>","null","","","","","","","","","",""
"fixation-image-keyboard-release-original","3724","1317183","0.0-13.0-1.0","","1250.930000009248","Stim/Stim-BG/NI_I.PNG","86","","","1","exp","100","1","0","C","v","true"
"html-keyboard-response","3725","1318285","0.0-13.0-2.0","","null","<p> CORRECT </p>","null","","","","","","","","","",""
"fixation-image-keyboard-release-original","3810","1321216","0.0-14.0-1.0","","1474.4549999886658","Stim/Stim-GB/II_I.PNG","66","","","2","exp","100","1","0","C","v","false"
"html-keyboard-response","3811","1322320","0.0-14.0-2.0","","null","<p> INCORRECT </p>","null","","","","","","","","","",""
"fixation-image-keyboard-release-original","3946","1324863","0.0-14.1-1.1","","794.7749999875668","Stim/Stim-BG/MM_M.PNG","66","","","2","exp","700","2","1","C","b","true"
"html-keyboard-response","3947","1325965","0.0-14.1-2.1","","null","<p> CORRECT </p>","null","","","","","","","","","",""
"fixation-image-keyboard-release-original","4024","1327879","0.0-15.0-1.0","","500.19000002066605","Stim/Stim-GB/MM_I.PNG","86","","","2","exp","700","2","0","IC","v","true"
"html-keyboard-response","4025","1328982","0.0-15.0-2.0","","null","<p> CORRECT </p>","null","","","","","","","","","",""
"fixation-image-keyboard-release-original","4081","1331519","0.0-16.0-1.0","","1236.0699999844655","Stim/Stim-BG/MM_M.PNG","66","","","2","exp","100","2","1","C","b","true"
"html-keyboard-response","4082","1332623","0.0-16.0-2.0","","null","<p> CORRECT </p>","null","","","","","","","","","",""
"fixation-image-keyboard-release-original","4149","1334991","0.0-17.0-1.0","","1002.6199999847449","Stim/Stim-BG/MN_M.PNG","66","","","1","exp","100","2","1","C","b","true"
"html-keyboard-response","4150","1336093","0.0-17.0-2.0","","null","<p> CORRECT </p>","null","","","","","","","","","",""
"call-function","4151","1336094","0.0-18.0","","","","","","","","","","","","","",""
"survey-html-form","4152","1344104","0.0-19.0","","8007.140000001527","","","{""hands"":""Both""}","","","","","","","","",""
"html-keyboard-response","4153","1345079","0.0-20.0","","973.6350000021048","If you are using <strong><u>just</u></strong> your <strong></u>right hand</u></strong>, then good job! If not, please do so in the main part of the experiment.<br><br>Press Enter to continue","13","","","","","","","","","",""
"html-keyboard-response","4154","1346137","0.0-21.0","","1056.1500000185333","<div class = 'my_window'><h1>Main Trials</h1><p>Good Job! We will now begin the main trials. In the main trials, you will <strong>not</strong> get feedback. There are 192 trials overall. You will get a self-paced break every 48 trials.</p><p>Instructions Reminder: <p>Before each trial starts, please ensure that you keep the <strong><u>V key</u></strong> and <strong><u>B key</u></strong> depressed with your <strong><u>right index finger</u></strong> on the <strong><u>V key</u></strong> and your <strong><u>right middle finger</u></strong> on the <strong><u>B key</u></strong> (see image below). Responses on this experiment will consist of lifting your <strong><u>right index finger</u></strong> to release the <strong><u>V key</u></strong> if you see the letter <strong><u>I</u></strong> or lifting your <strong><u>right middle finger</u></strong> to release the <strong><u>B key</u></strong> if you see the letter <strong><u>M</u></strong> as fast as you can. It is important that you <strong><u>only use your right hand</u></strong> to do the task.</p><p><img src='keyboard_img.png'></p><p>While you complete this task, there will be a couple of hands moving in the background. Ignore them and focus on the task.</p><p>Remember: this is a reaction time experiment, so please try to respond as fast as possible while at the same time minimizing mistakes.</p><p>Press ENTER to begin.</p></div>","13","","","","","","","","","",""
"call-function","4155","1346137","0.0-22.0","","","","","","","","","","","","","",""
"fixation-image-keyboard-release-original","4439","1349559","0.0-23.0-1.0","","881.0499999963213","Stim/Stim-GB/II_M.PNG","66","","","2","exp","100","1","1","IC","b","true"
"fixation-image-keyboard-release-original","4612","1353591","0.0-23.0-1.1","","1104.2749999905936","Stim/Stim-BG/II_I.PNG","86","","","2","exp","100","1","0","C","v","true"
"fixation-image-keyboard-release-original","4639","1356623","0.0-23.0-1.2","","892.809999990277","Stim/Stim-GB/MM_M.PNG","66","","","2","exp","100","2","1","C","b","true"
"fixation-image-keyboard-release-original","4640","1360167","0.0-23.0-1.3","","1540.9100000106264","Stim/Stim-GB/NM_M.PNG","86","","","1","exp","100","2","1","C","b","false"
"fixation-image-keyboard-release-original","4641","1363159","0.0-23.0-1.4","","987.9300000029616","Stim/Stim-BG/IN_I.PNG","66","","","1","exp","700","1","0","C","v","false"
"fixation-image-keyboard-release-original","4642","1365991","0.0-23.0-1.5","","829.3549999943934","Stim/Stim-BG/II_M.PNG","66","","","2","exp","700","1","1","IC","b","true"
"fixation-image-keyboard-release-original","4643","1368615","0.0-23.0-1.6","","619.8099999746773","Stim/Stim-BG/NM_I.PNG","86","","","1","exp","400","2","0","IC","v","true"
"fixation-image-keyboard-release-original","4644","1371447","0.0-23.0-1.7","","827.4800000071991","Stim/Stim-GB/IN_I.PNG","86","","","1","exp","400","1","0","C","v","true"
"fixation-image-keyboard-release-original","4645","1374391","0.0-23.0-1.8","","921.6399999859277","Stim/Stim-GB/II_M.PNG","66","","","2","exp","100","1","1","IC","b","true"
"fixation-image-keyboard-release-original","4646","1377031","0.0-23.0-1.9","","637.3400000156835","Stim/Stim-BG/MM_M.PNG","66","","","2","exp","700","2","1","C","b","true"
"fixation-image-keyboard-release-original","4647","1379640","0.0-23.0-1.10","","605.7900000014342","Stim/Stim-GB/NI_I.PNG","86","","","1","exp","400","1","0","C","v","true"
"fixation-image-keyboard-release-original","4648","1382584","0.0-23.0-1.11","","940.1050000160467","Stim/Stim-BG/MN_M.PNG","66","","","1","exp","700","2","1","C","b","true"
"fixation-image-keyboard-release-original","4649","1385447","0.0-23.0-1.12","","858.7399999960326","Stim/Stim-BG/II_I.PNG","86","","","2","exp","100","1","0","C","v","true"
"fixation-image-keyboard-release-original","4650","1388351","0.0-23.0-1.13","","901.0650000127498","Stim/Stim-GB/MN_M.PNG","66","","","1","exp","700","2","1","C","b","true"
"fixation-image-keyboard-release-original","4651","1391264","0.0-23.0-1.14","","907.7800000086427","Stim/Stim-BG/MN_I.PNG","86","","","1","exp","400","2","0","IC","v","true"
"fixation-image-keyboard-release-original","4652","1393984","0.0-23.0-1.15","","715.2599999972153","Stim/Stim-BG/MM_M.PNG","66","","","2","exp","100","2","1","C","b","true"
"fixation-image-keyboard-release-original","4653","1396655","0.0-23.0-1.16","","667.3400000145193","Stim/Stim-BG/NI_M.PNG","66","","","1","exp","400","1","1","IC","b","true"
"fixation-image-keyboard-release-original","4654","1399255","0.0-23.0-1.17","","598.1050000118557","Stim/Stim-BG/MM_I.PNG","66","","","2","exp","700","2","0","IC","v","false"
"fixation-image-keyboard-release-original","4655","1401935","0.0-23.0-1.18","","675.5150000099093","Stim/Stim-GB/II_M.PNG","66","","","2","exp","400","1","1","IC","b","true"
"fixation-image-keyboard-release-original","4656","1404623","0.0-23.0-1.19","","684.6149999764748","Stim/Stim-GB/MM_I.PNG","86","","","2","exp","400","2","0","IC","v","true"
"fixation-image-keyboard-release-original","4657","1407343","0.0-23.0-1.20","","716.6050000232644","Stim/Stim-BG/NI_I.PNG","86","","","1","exp","100","1","0","C","v","true"
"fixation-image-keyboard-release-original","4658","1409935","0.0-23.0-1.21","","589.8450000095181","Stim/Stim-GB/MN_M.PNG","66","","","1","exp","400","2","1","C","b","true"
"fixation-image-keyboard-release-original","4659","1412599","0.0-23.0-1.22","","660.1500000106171","Stim/Stim-GB/IN_M.PNG","66","","","1","exp","100","1","1","IC","b","true"
"fixation-image-keyboard-release-original","4660","1415239","0.0-23.0-1.23","","634.7649999952409","Stim/Stim-GB/II_I.PNG","86","","","2","exp","700","1","0","C","v","true"
"fixation-image-keyboard-release-original","4661","1418391","0.0-23.0-1.24","","1146.7399999964982","Stim/Stim-GB/MM_M.PNG","66","","","2","exp","100","2","1","C","b","true"
"fixation-image-keyboard-release-original","4689","1421216","0.0-23.0-1.25","","684.3449999869335","Stim/Stim-BG/II_I.PNG","86","","","2","exp","400","1","0","C","v","true"
"fixation-image-keyboard-release-original","4704","1424959","0.0-23.0-1.26","","1673.5549999866635","Stim/Stim-GB/MN_I.PNG","66","","","1","exp","700","2","0","IC","v","false"
"fixation-image-keyboard-release-original","4705","1427607","0.0-23.0-1.27","","644.8950000049081","Stim/Stim-GB/II_I.PNG","86","","","2","exp","400","1","0","C","v","true"
"fixation-image-keyboard-release-original","4706","1430200","0.0-23.0-1.28","","590.7050000096206","Stim/Stim-GB/MM_M.PNG","66","","","2","exp","700","2","1","C","b","true"
"fixation-image-keyboard-release-original","4707","1433031","0.0-23.0-1.29","","827.0250000059605","Stim/Stim-BG/MN_M.PNG","66","","","1","exp","100","2","1","C","b","true"
"fixation-image-keyboard-release-original","4713","1436703","0.0-23.0-1.30","","1650.580000015907","Stim/Stim-GB/NM_M.PNG","86","","","1","exp","700","2","1","C","b","false"
"fixation-image-keyboard-release-original","4714","1439887","0.0-23.0-1.31","","1180.705000006128","Stim/Stim-BG/MM_M.PNG","66","","","2","exp","700","2","1","C","b","true"
"fixation-image-keyboard-release-original","4715","1442551","0.0-23.0-1.32","","659.6000000135973","Stim/Stim-GB/II_I.PNG","86","","","2","exp","100","1","0","C","v","true"
"fixation-image-keyboard-release-original","4716","1445247","0.0-23.0-1.33","","693.6700000078417","Stim/Stim-BG/II_M.PNG","66","","","2","exp","700","1","1","IC","b","true"
"fixation-image-keyboard-release-original","4717","1447975","0.0-23.0-1.34","","716.3599999912549","Stim/Stim-BG/IN_I.PNG","86","","","1","exp","100","1","0","C","v","true"
"fixation-image-keyboard-release-original","4718","1450727","0.0-23.0-1.35","","749.1100000042934","Stim/Stim-BG/NI_I.PNG","86","","","1","exp","400","1","0","C","v","true"
"fixation-image-keyboard-release-original","4728","1453360","0.0-23.0-1.36","","587.2850000159815","Stim/Stim-BG/MM_M.PNG","66","","","2","exp","700","2","1","C","b","true"
"fixation-image-keyboard-release-original","4729","1455927","0.0-23.0-1.37","","562.6950000005309","Stim/Stim-BG/IN_M.PNG","66","","","1","exp","700","1","1","IC","b","true"
"fixation-image-keyboard-release-original","4730","1459703","0.0-23.0-1.38","","1772.5599999830592","Stim/Stim-BG/NM_M.PNG","86","","","1","exp","400","2","1","C","b","false"
"fixation-image-keyboard-release-original","4731","1463127","0.0-23.0-1.39","","1419.5900000049733","Stim/Stim-BG/II_I.PNG","66","","","2","exp","100","1","0","C","v","false"
"fixation-image-keyboard-release-original","4732","1466615","0.0-23.0-1.40","","1483.894999983022","Stim/Stim-BG/NM_I.PNG","86","","","1","exp","100","2","0","IC","v","true"
"fixation-image-keyboard-release-original","4733","1469223","0.0-23.0-1.41","","603.7899999937508","Stim/Stim-BG/IN_M.PNG","66","","","1","exp","100","1","1","IC","b","true"
"fixation-image-keyboard-release-original","4810","1472639","0.0-23.0-1.42","","1004.2099999845959","Stim/Stim-GB/IN_I.PNG","66","","","1","exp","700","1","0","C","v","false"
"fixation-image-keyboard-release-original","4847","1475577","0.0-23.0-1.43","","747.2150000103284","Stim/Stim-GB/MM_I.PNG","86","","","2","exp","700","2","0","IC","v","true"
"fixation-image-keyboard-release-original","4850","1478591","0.0-23.0-1.44","","1004.7750000085216","Stim/Stim-BG/MM_I.PNG","86","","","2","exp","100","2","0","IC","v","true"
"fixation-image-keyboard-release-original","4907","1481455","0.0-23.0-1.45","","564.4099999917671","Stim/Stim-GB/MM_M.PNG","66","","","2","exp","400","2","1","C","b","true"
"fixation-image-keyboard-release-original","4908","1484439","0.0-23.0-1.46","","981.3450000074226","Stim/Stim-BG/II_M.PNG","66","","","2","exp","400","1","1","IC","b","true"
"fixation-image-keyboard-release-original","4909","1487119","0.0-23.0-1.47","","676.7600000021048","Stim/Stim-GB/MM_I.PNG","86","","","2","exp","400","2","0","IC","v","true"
"html-keyboard-response","4910","1491784","0.0-23.0-2.47-0.47","","3662.9250000114553","Take a break. Feel free to start again by pressing Enter.","13","","","","","","","","","",""
"fixation-image-keyboard-release-original","5128","1494824","0.0-23.0-1.48","","874.1899999731686","Stim/Stim-BG/NM_M.PNG","86","","","1","exp","700","2","1","C","b","false"
"fixation-image-keyboard-release-original","5129","1497367","0.0-23.0-1.49","","540.9900000086054","Stim/Stim-GB/IN_I.PNG","66","","","1","exp","400","1","0","C","v","false"
"fixation-image-keyboard-release-original","5130","1499863","0.0-23.0-1.50","","493.08499999460764","Stim/Stim-BG/MM_M.PNG","66","","","2","exp","100","2","1","C","b","true"
"fixation-image-keyboard-release-original","5131","1502391","0.0-23.0-1.51","","523.0349999910686","Stim/Stim-BG/MM_M.PNG","66","","","2","exp","100","2","1","C","b","true"
"fixation-image-keyboard-release-original","5138","1505015","0.0-23.0-1.52","","596.7100000125356","Stim/Stim-BG/MM_M.PNG","66","","","2","exp","100","2","1","C","b","true"
"fixation-image-keyboard-release-original","5146","1507647","0.0-23.0-1.53","","600.4850000026636","Stim/Stim-BG/II_I.PNG","86","","","2","exp","400","1","0","C","v","true"
"fixation-image-keyboard-release-original","5162","1510303","0.0-23.0-1.54","","576.90499999444","Stim/Stim-GB/II_I.PNG","86","","","2","exp","400","1","0","C","v","true"
"fixation-image-keyboard-release-original","5163","1512896","0.0-23.0-1.55","","589.2950000124983","Stim/Stim-BG/MM_M.PNG","66","","","2","exp","400","2","1","C","b","true"
"fixation-image-keyboard-release-original","5164","1515639","0.0-23.0-1.56","","738.2449999859091","Stim/Stim-GB/NI_M.PNG","86","","","1","exp","400","1","1","IC","b","false"
"fixation-image-keyboard-release-original","5165","1518479","0.0-23.0-1.57","","836.8699999991804","Stim/Stim-GB/IN_M.PNG","66","","","1","exp","700","1","1","IC","b","true"
"fixation-image-keyboard-release-original","5166","1521015","0.0-23.0-1.58","","533.4600000060163","Stim/Stim-GB/MN_M.PNG","66","","","1","exp","100","2","1","C","b","true"
"fixation-image-keyboard-release-original","5167","1523535","0.0-23.0-1.59","","516.1299999745097","Stim/Stim-GB/MN_M.PNG","66","","","1","exp","400","2","1","C","b","true"
"fixation-image-keyboard-release-original","5168","1525958","0.0-23.0-1.60","","420.14000000199303","Stim/Stim-BG/IN_M.PNG","66","","","1","exp","100","1","1","IC","b","true"
"fixation-image-keyboard-release-original","5169","1528718","0.0-23.0-1.61","","756.8449999962468","Stim/Stim-GB/II_M.PNG","66","","","2","exp","700","1","1","IC","b","true"
"fixation-image-keyboard-release-original","5170","1531471","0.0-23.0-1.62","","750.2800000074785","Stim/Stim-GB/NI_M.PNG","86","","","1","exp","100","1","1","IC","b","false"
"fixation-image-keyboard-release-original","5171","1536759","0.0-23.0-1.63","","3285.7500000100117","Stim/Stim-GB/MN_I.PNG","86","","","1","exp","100","2","0","IC","v","true"
"fixation-image-keyboard-release-original","5172","1539575","0.0-23.0-1.64","","813.1900000153109","Stim/Stim-GB/NM_M.PNG","86","","","1","exp","400","2","1","C","b","false"
"fixation-image-keyboard-release-original","5173","1543167","0.0-23.0-1.65","","1588.7100000109058","Stim/Stim-BG/II_I.PNG","86","","","2","exp","400","1","0","C","v","true"
"fixation-image-keyboard-release-original","5174","1545615","0.0-23.0-1.66","","445.4750000149943","Stim/Stim-GB/II_M.PNG","66","","","2","exp","400","1","1","IC","b","true"
"fixation-image-keyboard-release-original","5175","1548247","0.0-23.0-1.67","","627.6099999959115","Stim/Stim-BG/MM_M.PNG","66","","","2","exp","400","2","1","C","b","true"
"fixation-image-keyboard-release-original","5176","1550999","0.0-23.0-1.68","","748.1749999860767","Stim/Stim-BG/II_M.PNG","66","","","2","exp","400","1","1","IC","b","true"
"fixation-image-keyboard-release-original","5236","1554375","0.0-23.0-1.69","","1065.999999991618","Stim/Stim-BG/MM_I.PNG","86","","","2","exp","100","2","0","IC","v","true"
"fixation-image-keyboard-release-original","6525","1565407","0.0-23.0-1.70","","2028.0149999889545","Stim/Stim-BG/NI_M.PNG","66","","","1","exp","700","1","1","IC","b","true"
"fixation-image-keyboard-release-original","6526","1568271","0.0-23.0-1.71","","859.5450000138953","Stim/Stim-BG/NM_M.PNG","66","","","1","exp","100","2","1","C","b","true"
"fixation-image-keyboard-release-original","6527","1571119","0.0-23.0-1.72","","844.4000000017695","Stim/Stim-BG/MN_I.PNG","86","","","1","exp","400","2","0","IC","v","true"
"fixation-image-keyboard-release-original","6528","1574623","0.0-23.0-1.73","","1500.6799999973737","Stim/Stim-GB/MM_M.PNG","86","","","2","exp","400","2","1","C","b","false"
"fixation-image-keyboard-release-original","6529","1577207","0.0-23.0-1.74","","580.6549999979325","Stim/Stim-BG/MM_I.PNG","86","","","2","exp","400","2","0","IC","v","true"
"fixation-image-keyboard-release-original","6530","1579695","0.0-23.0-1.75","","484.4450000091456","Stim/Stim-BG/II_M.PNG","66","","","2","exp","400","1","1","IC","b","true"
"fixation-image-keyboard-release-original","6531","1582239","0.0-23.0-1.76","","541.239999991376","Stim/Stim-GB/MN_I.PNG","86","","","1","exp","700","2","0","IC","v","true"
"fixation-image-keyboard-release-original","6532","1584743","0.0-23.0-1.77","","500.6549999816343","Stim/Stim-BG/II_M.PNG","66","","","2","exp","700","1","1","IC","b","true"
"fixation-image-keyboard-release-original","6533","1587303","0.0-23.0-1.78","","554.904999997234","Stim/Stim-BG/NM_M.PNG","86","","","1","exp","400","2","1","C","b","false"
"fixation-image-keyboard-release-original","6534","1589711","0.0-23.0-1.79","","405.41000000666827","Stim/Stim-BG/NI_M.PNG","66","","","1","exp","400","1","1","IC","b","true"
"fixation-image-keyboard-release-original","6535","1592447","0.0-23.0-1.80","","733.1999999878462","Stim/Stim-BG/NM_M.PNG","86","","","1","exp","100","2","1","C","b","false"
"fixation-image-keyboard-release-original","6536","1594975","0.0-23.0-1.81","","525.0750000122935","Stim/Stim-BG/II_I.PNG","66","","","2","exp","700","1","0","C","v","false"
"fixation-image-keyboard-release-original","6537","1597439","0.0-23.0-1.82","","459.4349999970291","Stim/Stim-GB/NI_M.PNG","66","","","1","exp","700","1","1","IC","b","true"
"fixation-image-keyboard-release-original","6538","1600031","0.0-23.0-1.83","","587.7699999837205","Stim/Stim-GB/IN_M.PNG","66","","","1","exp","400","1","1","IC","b","true"
"fixation-image-keyboard-release-original","6539","1602711","0.0-23.0-1.84","","676.9900000072084","Stim/Stim-BG/NI_M.PNG","66","","","1","exp","100","1","1","IC","b","true"
"fixation-image-keyboard-release-original","6540","1605375","0.0-23.0-1.85","","660.2600000042003","Stim/Stim-GB/MM_M.PNG","86","","","2","exp","400","2","1","C","b","false"
"fixation-image-keyboard-release-original","6541","1607911","0.0-23.0-1.86","","532.134999986738","Stim/Stim-GB/II_M.PNG","66","","","2","exp","100","1","1","IC","b","true"
"fixation-image-keyboard-release-original","6542","1610439","0.0-23.0-1.87","","524.8349999892525","Stim/Stim-GB/II_I.PNG","66","","","2","exp","100","1","0","C","v","false"
"fixation-image-keyboard-release-original","6543","1613359","0.0-23.0-1.88","","916.1299999977928","Stim/Stim-BG/II_M.PNG","66","","","2","exp","700","1","1","IC","b","true"
"fixation-image-keyboard-release-original","6544","1616023","0.0-23.0-1.89","","661.0700000019278","Stim/Stim-BG/II_M.PNG","66","","","2","exp","100","1","1","IC","b","true"
"fixation-image-keyboard-release-original","6545","1618752","0.0-23.0-1.90","","725.8650000148918","Stim/Stim-BG/IN_M.PNG","66","","","1","exp","400","1","1","IC","b","true"
"fixation-image-keyboard-release-original","6546","1621375","0.0-23.0-1.91","","619.7949999768753","Stim/Stim-GB/MN_M.PNG","86","","","1","exp","100","2","1","C","b","false"
"fixation-image-keyboard-release-original","6547","1623983","0.0-23.0-1.92","","604.4349999865517","Stim/Stim-GB/MM_M.PNG","86","","","2","exp","700","2","1","C","b","false"
"fixation-image-keyboard-release-original","6548","1626439","0.0-23.0-1.93","","451.87499999883585","Stim/Stim-GB/NI_I.PNG","66","","","1","exp","400","1","0","C","v","false"
"fixation-image-keyboard-release-original","6549","1629063","0.0-23.0-1.94","","619.4299999915529","Stim/Stim-GB/NM_I.PNG","86","","","1","exp","100","2","0","IC","v","true"
"fixation-image-keyboard-release-original","6550","1631504","0.0-23.0-1.95","","437.41500002215616","Stim/Stim-BG/II_I.PNG","66","","","2","exp","700","1","0","C","v","false"
"html-keyboard-response","6551","1636016","0.0-23.0-2.95-0.95","","3509.9100000225008","Take a break. Feel free to start again by pressing Enter.","13","","","","","","","","","",""
"fixation-image-keyboard-release-original","6683","1638296","0.0-23.0-1.96","","589.1800000099465","Stim/Stim-BG/MM_I.PNG","86","","","2","exp","100","2","0","IC","v","true"
"fixation-image-keyboard-release-original","6684","1640735","0.0-23.0-1.97","","436.1100000096485","Stim/Stim-BG/II_M.PNG","66","","","2","exp","400","1","1","IC","b","true"
"fixation-image-keyboard-release-original","6685","1643160","0.0-23.0-1.98","","421.3900000031572","Stim/Stim-BG/II_I.PNG","66","","","2","exp","700","1","0","C","v","false"
"fixation-image-keyboard-release-original","6686","1645591","0.0-23.0-1.99","","427.06499999621883","Stim/Stim-GB/MN_I.PNG","86","","","1","exp","100","2","0","IC","v","true"
"fixation-image-keyboard-release-original","6687","1648151","0.0-23.0-1.100","","556.3449999899603","Stim/Stim-BG/MM_I.PNG","86","","","2","exp","700","2","0","IC","v","true"
"fixation-image-keyboard-release-original","6688","1650663","0.0-23.0-1.101","","508.4949999873061","Stim/Stim-GB/NM_M.PNG","66","","","1","exp","700","2","1","C","b","true"
"fixation-image-keyboard-release-original","6689","1653327","0.0-23.0-1.102","","659.2149999924004","Stim/Stim-GB/MM_I.PNG","86","","","2","exp","100","2","0","IC","v","true"
"fixation-image-keyboard-release-original","6690","1656247","0.0-23.0-1.103","","917.8250000113621","Stim/Stim-GB/NI_I.PNG","66","","","1","exp","100","1","0","C","v","false"
"fixation-image-keyboard-release-original","6691","1658751","0.0-23.0-1.104","","499.7200000216253","Stim/Stim-GB/MM_I.PNG","86","","","2","exp","700","2","0","IC","v","true"
"fixation-image-keyboard-release-original","6692","1661255","0.0-23.0-1.105","","500.514999992447","Stim/Stim-GB/MM_M.PNG","86","","","2","exp","100","2","1","C","b","false"
"fixation-image-keyboard-release-original","6693","1663919","0.0-23.0-1.106","","659.0800000121817","Stim/Stim-GB/MN_M.PNG","86","","","1","exp","700","2","1","C","b","false"
"fixation-image-keyboard-release-original","6694","1666480","0.0-23.0-1.107","","556.2649999919813","Stim/Stim-GB/II_M.PNG","66","","","2","exp","100","1","1","IC","b","true"
"fixation-image-keyboard-release-original","6695","1669023","0.0-23.0-1.108","","541.1450000246987","Stim/Stim-GB/NM_I.PNG","86","","","1","exp","400","2","0","IC","v","true"
"fixation-image-keyboard-release-original","6696","1673279","0.0-23.0-1.109","","2254.060000006575","Stim/Stim-GB/NM_I.PNG","86","","","1","exp","700","2","0","IC","v","true"
"fixation-image-keyboard-release-original","6697","1675815","0.0-23.0-1.110","","531.6250000032596","Stim/Stim-GB/MM_I.PNG","86","","","2","exp","100","2","0","IC","v","true"
"fixation-image-keyboard-release-original","6698","1678535","0.0-23.0-1.111","","714.7399999957997","Stim/Stim-GB/NM_M.PNG","86","","","1","exp","100","2","1","C","b","false"
"fixation-image-keyboard-release-original","6736","1681327","0.0-23.0-1.112","","594.6950000070501","Stim/Stim-GB/MN_I.PNG","86","","","1","exp","400","2","0","IC","v","true"
"fixation-image-keyboard-release-original","6737","1683927","0.0-23.0-1.113","","597.3050000029616","Stim/Stim-GB/II_I.PNG","66","","","2","exp","700","1","0","C","v","false"
"fixation-image-keyboard-release-original","6738","1686423","0.0-23.0-1.114","","491.71500001102686","Stim/Stim-GB/IN_M.PNG","66","","","1","exp","700","1","1","IC","b","true"
"fixation-image-keyboard-release-original","6739","1689183","0.0-23.0-1.115","","755.7899999956135","Stim/Stim-BG/II_I.PNG","66","","","2","exp","400","1","0","C","v","false"
"fixation-image-keyboard-release-original","6740","1691631","0.0-23.0-1.116","","445.5399999860674","Stim/Stim-BG/NI_I.PNG","66","","","1","exp","700","1","0","C","v","false"
"fixation-image-keyboard-release-original","6741","1694392","0.0-23.0-1.117","","755.7849999866448","Stim/Stim-BG/NM_M.PNG","86","","","1","exp","700","2","1","C","b","false"
"fixation-image-keyboard-release-original","6742","1696903","0.0-23.0-1.118","","507.9599999880884","Stim/Stim-GB/MM_I.PNG","86","","","2","exp","400","2","0","IC","v","true"
"fixation-image-keyboard-release-original","6743","1699327","0.0-23.0-1.119","","421.1850000137929","Stim/Stim-BG/II_I.PNG","66","","","2","exp","700","1","0","C","v","false"
"fixation-image-keyboard-release-original","6744","1701887","0.0-23.0-1.120","","557.3199999926146","Stim/Stim-GB/NI_M.PNG","66","","","1","exp","700","1","1","IC","b","true"
"fixation-image-keyboard-release-original","6745","1704463","0.0-23.0-1.121","","570.4550000082236","Stim/Stim-BG/MN_M.PNG","86","","","1","exp","400","2","1","C","b","false"
"fixation-image-keyboard-release-original","6746","1707095","0.0-23.0-1.122","","629.7450000129174","Stim/Stim-GB/MM_I.PNG","86","","","2","exp","700","2","0","IC","v","true"
"fixation-image-keyboard-release-original","6747","1709631","0.0-23.0-1.123","","532.6700000150595","Stim/Stim-BG/MN_I.PNG","86","","","1","exp","700","2","0","IC","v","true"
"fixation-image-keyboard-release-original","6748","1712143","0.0-23.0-1.124","","508.6449999944307","Stim/Stim-GB/II_M.PNG","66","","","2","exp","400","1","1","IC","b","true"
"fixation-image-keyboard-release-original","6749","1714679","0.0-23.0-1.125","","534.0350000187755","Stim/Stim-GB/MM_I.PNG","86","","","2","exp","400","2","0","IC","v","true"
"fixation-image-keyboard-release-original","6750","1717295","0.0-23.0-1.126","","612.1100000164006","Stim/Stim-BG/IN_I.PNG","66","","","1","exp","400","1","0","C","v","false"
"fixation-image-keyboard-release-original","6751","1719783","0.0-23.0-1.127","","485.0049999949988","Stim/Stim-BG/MN_M.PNG","86","","","1","exp","100","2","1","C","b","false"
"fixation-image-keyboard-release-original","6752","1722311","0.0-23.0-1.128","","524.4650000240654","Stim/Stim-GB/II_I.PNG","66","","","2","exp","100","1","0","C","v","false"
"fixation-image-keyboard-release-original","6753","1724839","0.0-23.0-1.129","","525.3549999906681","Stim/Stim-GB/MN_I.PNG","86","","","1","exp","400","2","0","IC","v","true"
"fixation-image-keyboard-release-original","6754","1727447","0.0-23.0-1.130","","602.9400000115857","Stim/Stim-GB/IN_M.PNG","66","","","1","exp","100","1","1","IC","b","true"
"fixation-image-keyboard-release-original","6755","1729936","0.0-23.0-1.131","","483.9300000166986","Stim/Stim-BG/MM_I.PNG","86","","","2","exp","100","2","0","IC","v","true"
"fixation-image-keyboard-release-original","6756","1732423","0.0-23.0-1.132","","483.860000007553","Stim/Stim-GB/NI_M.PNG","66","","","1","exp","100","1","1","IC","b","true"
"fixation-image-keyboard-release-original","6757","1735072","0.0-23.0-1.133","","644.4950000150129","Stim/Stim-BG/NM_I.PNG","86","","","1","exp","700","2","0","IC","v","true"
"fixation-image-keyboard-release-original","6758","1737559","0.0-23.0-1.134","","483.4700000064913","Stim/Stim-GB/MM_M.PNG","86","","","2","exp","100","2","1","C","b","false"
"fixation-image-keyboard-release-original","6759","1740103","0.0-23.0-1.135","","539.5800000114832","Stim/Stim-BG/MN_M.PNG","86","","","1","exp","400","2","1","C","b","false"
"fixation-image-keyboard-release-original","6760","1742576","0.0-23.0-1.136","","469.7699999960605","Stim/Stim-GB/MM_M.PNG","86","","","2","exp","700","2","1","C","b","false"
"fixation-image-keyboard-release-original","6761","1745111","0.0-23.0-1.137","","531.2850000045728","Stim/Stim-GB/II_I.PNG","66","","","2","exp","100","1","0","C","v","false"
"fixation-image-keyboard-release-original","6762","1747671","0.0-23.0-1.138","","557.4999999953434","Stim/Stim-GB/II_I.PNG","66","","","2","exp","700","1","0","C","v","false"
"fixation-image-keyboard-release-original","6763","1750183","0.0-23.0-1.139","","507.13500002166256","Stim/Stim-BG/IN_M.PNG","66","","","1","exp","700","1","1","IC","b","true"
"fixation-image-keyboard-release-original","6764","1752640","0.0-23.0-1.140","","452.35499998671","Stim/Stim-BG/NI_I.PNG","66","","","1","exp","400","1","0","C","v","false"
"fixation-image-keyboard-release-original","6765","1755239","0.0-23.0-1.141","","595.8249999966938","Stim/Stim-BG/IN_I.PNG","66","","","1","exp","100","1","0","C","v","false"
"fixation-image-keyboard-release-original","6766","1757839","0.0-23.0-1.142","","594.3200000037905","Stim/Stim-BG/IN_I.PNG","66","","","1","exp","700","1","0","C","v","false"
"fixation-image-keyboard-release-original","6821","1760583","0.0-23.0-1.143","","453.24999999138527","Stim/Stim-BG/MM_I.PNG","86","","","2","exp","400","2","0","IC","v","true"
"html-keyboard-response","6822","1762935","0.0-23.0-2.143-0.143","","1350.9800000174437","Take a break. Feel free to start again by pressing Enter.","13","","","","","","","","","",""
"fixation-image-keyboard-release-original","6959","1765127","0.0-23.0-1.144","","466.97999999742024","Stim/Stim-GB/II_I.PNG","66","","","2","exp","400","1","0","C","v","false"
"fixation-image-keyboard-release-original","6960","1767471","0.0-23.0-1.145","","340.15000000363216","Stim/Stim-BG/MM_I.PNG","86","","","2","exp","400","2","0","IC","v","true"
"fixation-image-keyboard-release-original","6961","1769870","0.0-23.0-1.146","","397.4400000006426","Stim/Stim-BG/II_M.PNG","66","","","2","exp","100","1","1","IC","b","true"
"fixation-image-keyboard-release-original","6962","1772398","0.0-23.0-1.147","","523.5999999858905","Stim/Stim-GB/IN_I.PNG","66","","","1","exp","100","1","0","C","v","false"
"fixation-image-keyboard-release-original","6963","1774839","0.0-23.0-1.148","","435.9849999891594","Stim/Stim-BG/MM_I.PNG","86","","","2","exp","700","2","0","IC","v","true"
"fixation-image-keyboard-release-original","6964","1777110","0.0-23.0-1.149","","269.9950000096578","Stim/Stim-GB/II_I.PNG","66","","","2","exp","700","1","0","C","v","false"
"fixation-image-keyboard-release-original","6965","1779407","0.0-23.0-1.150","","293.7650000094436","Stim/Stim-BG/MN_I.PNG","86","","","1","exp","700","2","0","IC","v","true"
"fixation-image-keyboard-release-original","6966","1781647","0.0-23.0-1.151","","235.91500002657995","Stim/Stim-GB/NI_I.PNG","66","","","1","exp","700","1","0","C","v","false"
"fixation-image-keyboard-release-original","6967","1784246","0.0-23.0-1.152","","594.9200000031851","Stim/Stim-GB/IN_I.PNG","66","","","1","exp","700","1","0","C","v","false"
"fixation-image-keyboard-release-original","6968","1786695","0.0-23.0-1.153","","445.17500000074506","Stim/Stim-GB/NM_I.PNG","86","","","1","exp","700","2","0","IC","v","true"
"fixation-image-keyboard-release-original","6969","1789215","0.0-23.0-1.154","","515.3649999992922","Stim/Stim-BG/MM_I.PNG","86","","","2","exp","400","2","0","IC","v","true"
"fixation-image-keyboard-release-original","6970","1791583","0.0-23.0-1.155","","363.8700000010431","Stim/Stim-GB/II_M.PNG","66","","","2","exp","400","1","1","IC","b","true"
"fixation-image-keyboard-release-original","6971","1793991","0.0-23.0-1.156","","403.83499997551553","Stim/Stim-BG/NM_I.PNG","86","","","1","exp","400","2","0","IC","v","true"
"fixation-image-keyboard-release-original","6972","1796513","0.0-23.0-1.157","","519.2499999830034","Stim/Stim-GB/NM_M.PNG","86","","","1","exp","400","2","1","C","b","false"
"fixation-image-keyboard-release-original","6973","1799095","0.0-23.0-1.158","","578.3550000051036","Stim/Stim-BG/MM_M.PNG","86","","","2","exp","700","2","1","C","b","false"
"fixation-image-keyboard-release-original","6974","1801663","0.0-23.0-1.159","","564.2050000024028","Stim/Stim-BG/IN_M.PNG","66","","","1","exp","400","1","1","IC","b","true"
"fixation-image-keyboard-release-original","6975","1804239","0.0-23.0-1.160","","570.1950000075158","Stim/Stim-BG/NM_I.PNG","86","","","1","exp","700","2","0","IC","v","true"
"fixation-image-keyboard-release-original","6976","1806767","0.0-23.0-1.161","","525.5149999866262","Stim/Stim-GB/II_M.PNG","66","","","2","exp","700","1","1","IC","b","true"
"fixation-image-keyboard-release-original","6977","1809335","0.0-23.0-1.162","","563.5100000072271","Stim/Stim-BG/II_M.PNG","66","","","2","exp","100","1","1","IC","b","true"
"fixation-image-keyboard-release-original","6978","1811862","0.0-23.0-1.163","","522.7100000192877","Stim/Stim-GB/MM_I.PNG","86","","","2","exp","700","2","0","IC","v","true"
"fixation-image-keyboard-release-original","6979","1814687","0.0-23.0-1.164","","818.9999999885913","Stim/Stim-BG/MM_M.PNG","86","","","2","exp","400","2","1","C","b","false"
"fixation-image-keyboard-release-original","6980","1817319","0.0-23.0-1.165","","627.7600000030361","Stim/Stim-GB/II_M.PNG","66","","","2","exp","700","1","1","IC","b","true"
"fixation-image-keyboard-release-original","6981","1819879","0.0-23.0-1.166","","557.4699999997392","Stim/Stim-BG/NI_M.PNG","66","","","1","exp","100","1","1","IC","b","true"
"fixation-image-keyboard-release-original","6982","1822455","0.0-23.0-1.167","","569.7400000062771","Stim/Stim-BG/MN_I.PNG","86","","","1","exp","100","2","0","IC","v","true"
"fixation-image-keyboard-release-original","6983","1824967","0.0-23.0-1.168","","510.1100000028964","Stim/Stim-GB/NM_I.PNG","86","","","1","exp","100","2","0","IC","v","true"
"fixation-image-keyboard-release-original","6984","1827486","0.0-23.0-1.169","","514.2700000142213","Stim/Stim-GB/II_M.PNG","66","","","2","exp","700","1","1","IC","b","true"
"fixation-image-keyboard-release-original","6985","1829950","0.0-23.0-1.170","","460.80499998060986","Stim/Stim-GB/MM_I.PNG","86","","","2","exp","100","2","0","IC","v","true"
"fixation-image-keyboard-release-original","6986","1832463","0.0-23.0-1.171","","509.474999998929","Stim/Stim-BG/MN_I.PNG","86","","","1","exp","100","2","0","IC","v","true"
"fixation-image-keyboard-release-original","6987","1834951","0.0-23.0-1.172","","482.53499998827465","Stim/Stim-BG/IN_I.PNG","66","","","1","exp","400","1","0","C","v","false"
"fixation-image-keyboard-release-original","6988","1837550","0.0-23.0-1.173","","595.7199999829754","Stim/Stim-BG/MN_M.PNG","86","","","1","exp","700","2","1","C","b","false"
"fixation-image-keyboard-release-original","6989","1840175","0.0-23.0-1.174","","619.7849999880418","Stim/Stim-GB/IN_I.PNG","66","","","1","exp","100","1","0","C","v","false"
"fixation-image-keyboard-release-original","6990","1842654","0.0-23.0-1.175","","475.639999989653","Stim/Stim-GB/MM_M.PNG","86","","","2","exp","700","2","1","C","b","false"
"fixation-image-keyboard-release-original","6991","1845182","0.0-23.0-1.176","","522.915000008652","Stim/Stim-BG/NI_I.PNG","66","","","1","exp","100","1","0","C","v","false"
"fixation-image-keyboard-release-original","6992","1847639","0.0-23.0-1.177","","451.8500000122003","Stim/Stim-BG/MM_I.PNG","86","","","2","exp","700","2","0","IC","v","true"
"fixation-image-keyboard-release-original","6993","1850039","0.0-23.0-1.178","","395.94999997643754","Stim/Stim-GB/NI_I.PNG","66","","","1","exp","100","1","0","C","v","false"
"fixation-image-keyboard-release-original","6994","1852599","0.0-23.0-1.179","","554.7050000168383","Stim/Stim-GB/NI_I.PNG","66","","","1","exp","700","1","0","C","v","false"
"fixation-image-keyboard-release-original","6995","1855095","0.0-23.0-1.180","","491.52999999932945","Stim/Stim-GB/II_I.PNG","66","","","2","exp","400","1","0","C","v","false"
"fixation-image-keyboard-release-original","6996","1857535","0.0-23.0-1.181","","435.7799999997951","Stim/Stim-BG/MM_M.PNG","86","","","2","exp","400","2","1","C","b","false"
"fixation-image-keyboard-release-original","6997","1860015","0.0-23.0-1.182","","476.9500000111293","Stim/Stim-GB/NM_I.PNG","86","","","1","exp","400","2","0","IC","v","true"
"fixation-image-keyboard-release-original","6998","1862447","0.0-23.0-1.183","","427.3899999971036","Stim/Stim-BG/NI_M.PNG","66","","","1","exp","700","1","1","IC","b","true"
"fixation-image-keyboard-release-original","6999","1864856","0.0-23.0-1.184","","406.2350000021979","Stim/Stim-GB/MM_I.PNG","86","","","2","exp","100","2","0","IC","v","true"
"fixation-image-keyboard-release-original","7000","1867311","0.0-23.0-1.185","","451.67000000947155","Stim/Stim-GB/MM_M.PNG","86","","","2","exp","400","2","1","C","b","false"
"fixation-image-keyboard-release-original","7001","1869759","0.0-23.0-1.186","","442.58499998250045","Stim/Stim-BG/NM_I.PNG","86","","","1","exp","100","2","0","IC","v","true"
"fixation-image-keyboard-release-original","7002","1872191","0.0-23.0-1.187","","429.3750000069849","Stim/Stim-GB/IN_M.PNG","66","","","1","exp","400","1","1","IC","b","true"
"fixation-image-keyboard-release-original","7003","1874607","0.0-23.0-1.188","","411.6750000102911","Stim/Stim-BG/II_M.PNG","66","","","2","exp","100","1","1","IC","b","true"
"fixation-image-keyboard-release-original","7004","1876903","0.0-23.0-1.189","","293.03000000072643","Stim/Stim-BG/II_I.PNG","86","","","2","exp","100","1","0","C","v","true"
"fixation-image-keyboard-release-original","7099","1879895","0.0-23.0-1.190","","483.86999999638647","Stim/Stim-BG/NI_I.PNG","66","","","1","exp","700","1","0","C","v","false"
"fixation-image-keyboard-release-original","7107","1882447","0.0-23.0-1.191","","521.3400000066031","Stim/Stim-GB/NI_M.PNG","66","","","1","exp","400","1","1","IC","b","true"
"call-function","7108","1883448","0.0-24.0","","","","","","","","","","","","","",""
"survey-html-form","7109","1887696","0.0-25.0","","4245.974999997998","","","{""hands2"":""Left""}","","","","","","","","",""
