"trial_type","trial_index","time_elapsed","internal_node_id","value","rt","stimulus","key_press","responses","success","hand","test","gap","finger","cue","con","correct_response","correct"
"pavlovia","0","4","0.0-0.0","","","","","","","","","","","","","",""
"call-function","1","5","0.0-1.0","","","","","","","","","","","","","",""
"html-keyboard-response","2","10643","0.0-2.0","","10635.830000042915","<div class = 'my_window'><p><h1>Welcome!</h1><br><p><p>This experiment is adminterested by Carl Michael Galang (McMaster University), Dr. Emiel Cracco (Ghent University), Dr. Marcel Brass (Humboldt University of Berlin), & Dr. Sukhvinder Obhi (McMaster University).</p><p>The purpose of this study is to explore basic perceptual processing mechanisms.</p><p>Information gathered during this study will be written up for publication in an academic journal. While there are no direct benefits to you taking part in this study (other than learning more about the research topic and getting paid on Prolific), the results of this study will provide us with a better understanding of perceptual and sensory processes. To learn about this study, particularly in the terms of any associated risks or harms, how confidentiality and anonymity will be handled, withdrawal procedures, incentives that are promised, how to obtain information about the results, etc., please read the accompanying letter of information - <a href='LOI.pdf' target='_blank'>Click Here</a> (this will open a new window).</p><p>This study should take around 10min to complete.</p><p>If you have questions or need more information about the study itself, please contact me at: galangc@mcmaster.ca. This study has been reviewed by the McMaster University Research Ethics Board and received ethics clearance. If you have concerns or questions about your rights as a participant or about the way the study is conducted, please contact the McMaster Research Ethics Secretariat at ethicsoffice@mcmaster.ca.</p><br><p><h1>CONSENT</h1></p><p>I have read the information presented in the letter of information and I agree to participate in this study.</p><p>By pressing Enter, I consent to the above.<p>","13","","","","","","","","","",""
"survey-html-form","3","17120","0.0-3.0","","6475.744999945164","","","{""1"":""5ff5f1290976460fa2d704bd""}","","","","","","","","",""
"fullscreen","4","21585","0.0-4.0","","","","","","true","","","","","","","",""
"call-function","5","21586","0.0-5.0","","","","","","","","","","","","","",""
"html-keyboard-response","6","73034","0.0-6.0","","51446.92000001669","<div class = 'my_window'><h1>Instructions</h1><p>Your task in this experiment is to respond to the letters I or M as they appear on the screen. Unlike most experiments, your task will be to <strong><u>release</u></strong> keys (not push).</p><p>Before each trial starts, please ensure that you keep the <strong><u>V key</u></strong> and <strong><u>B key</u></strong> depressed with your <strong><u>right index finger</u></strong> on the <strong><u>V key</u></strong> and your <strong><u>right middle finger</u></strong> on the <strong><u>B key</u></strong> (see image below). Responses on this experiment will consist of lifting your <strong><u>right index finger</u></strong> to release the <strong><u>V key</u></strong> if you see the letter <strong><u>I</u></strong> or lifting your <strong><u>right middle finger</u></strong> to release the <strong><u>B key</u></strong> if you see the letter <strong><u>M</u></strong> as fast as you can. It is important that you <strong><u>only use your right hand</u></strong> to do the task.</p><p><img src='keyboard_img.png'></p><p>While you complete this task, there will be a couple of hands moving in the background. Ignore them and focus on the task.</p><p>Press ENTER to continue.</p></div>","13","","","","","","","","","",""
"html-keyboard-response","7","77322","0.0-7.0","","4287.11499995552","<div class = 'my_window'><h1>Practice</h1><p>You will first do a practice phase. In the practice phase, you will get feedback on your performance. The practice phase contains 10 trials, but will add an extra trial every time you respond incorrectly.</p><p><p>Before each trial starts, please ensure that you keep the <strong><u>V key</u></strong> and <strong><u>B key</u></strong> depressed with your <strong><u>right index finger</u></strong> on the <strong><u>V key</u></strong> and your <strong><u>right middle finger</u></strong> on the <strong><u>B key</u></strong> (see image below). Responses on this experiment will consist of lifting your <strong><u>right index finger</u></strong> to release the <strong><u>V key</u></strong> if you see the letter <strong><u>I</u></strong> or lifting your <strong><u>right middle finger</u></strong> to release the <strong><u>B key</u></strong> if you see the letter <strong><u>M</u></strong> as fast as you can. It is important that you <strong><u>only use your right hand</u></strong> to do the task.</p><p><img src='keyboard_img.png'></p><p>While you complete this task, there will be a couple of hands moving in the background. Ignore them and focus on the task.</p><p>This is a reaction time experiment, so please try to respond as fast as possible while at the same time minimizing mistakes.</p><p>Press ENTER to begin.</p></div>","13","","","","","","","","","",""
"fixation-image-keyboard-release-original","462","81322","0.0-8.0-1.0","","637.3400000156835","Stim/Stim-GB/II_M.PNG","66","","","2","exp","100","1","1","IC","b","true"
"html-keyboard-response","463","82427","0.0-8.0-2.0","","null","<p> CORRECT </p>","null","","","","","","","","","",""
"fixation-image-keyboard-release-original","784","85570","0.0-9.0-1.0","","520.879999967292","Stim/Stim-BG/MM_I.PNG","66","","","2","exp","100","2","0","IC","v","false"
"html-keyboard-response","785","86672","0.0-9.0-2.0","","null","<p> INCORRECT </p>","null","","","","","","","","","",""
"fixation-image-keyboard-release-original","1216","90434","0.0-9.1-1.1","","541.8650000356138","Stim/Stim-GB/NI_M.PNG","66","","","1","exp","100","1","1","IC","b","true"
"html-keyboard-response","1217","91538","0.0-9.1-2.1","","null","<p> CORRECT </p>","null","","","","","","","","","",""
"fixation-image-keyboard-release-original","1318","93530","0.0-10.0-1.0","","484.4250000314787","Stim/Stim-GB/NI_M.PNG","66","","","1","exp","100","1","1","IC","b","true"
"html-keyboard-response","1319","94632","0.0-10.0-2.0","","null","<p> CORRECT </p>","null","","","","","","","","","",""
"fixation-image-keyboard-release-original","1407","101410","0.0-11.0-1.0","","5332.265000091866","Stim/Stim-GB/NM_I.PNG","66","","","1","exp","700","2","0","IC","v","false"
"html-keyboard-response","1408","102513","0.0-11.0-2.0","","null","<p> INCORRECT </p>","null","","","","","","","","","",""
"fixation-image-keyboard-release-original","2149","108122","0.0-11.1-1.1","","800.0600000377744","Stim/Stim-GB/II_M.PNG","66","","","2","exp","400","1","1","IC","b","true"
"html-keyboard-response","2150","109224","0.0-11.1-2.1","","null","<p> CORRECT </p>","null","","","","","","","","","",""
"fixation-image-keyboard-release-original","2480","112570","0.0-12.0-1.0","","619.7350000729784","Stim/Stim-GB/NI_M.PNG","66","","","1","exp","400","1","1","IC","b","true"
"html-keyboard-response","2481","113673","0.0-12.0-2.0","","null","<p> CORRECT </p>","null","","","","","","","","","",""
"fixation-image-keyboard-release-original","2576","115570","0.0-13.0-1.0","","407.86000003572553","Stim/Stim-BG/IN_M.PNG","86","","","1","exp","100","1","1","IC","b","false"
"html-keyboard-response","2577","116674","0.0-13.0-2.0","","null","<p> INCORRECT </p>","null","","","","","","","","","",""
"fixation-image-keyboard-release-original","2578","118626","0.0-13.1-1.1","","940.6899999594316","Stim/Stim-BG/NM_I.PNG","86","","","1","exp","400","2","0","IC","v","true"
"html-keyboard-response","2579","119729","0.0-13.1-2.1","","null","<p> CORRECT </p>","null","","","","","","","","","",""
"fixation-image-keyboard-release-original","2580","121386","0.0-14.0-1.0","","654.5099999057129","Stim/Stim-BG/MN_I.PNG","66","","","1","exp","700","2","0","IC","v","false"
"html-keyboard-response","2581","122488","0.0-14.0-2.0","","null","<p> INCORRECT </p>","null","","","","","","","","","",""
"fixation-image-keyboard-release-original","2582","124122","0.0-14.1-1.1","","630.9650000184774","Stim/Stim-GB/IN_M.PNG","86","","","1","exp","400","1","1","IC","b","false"
"html-keyboard-response","2583","125224","0.0-14.1-2.1","","null","<p> INCORRECT </p>","null","","","","","","","","","",""
"fixation-image-keyboard-release-original","2584","126730","0.0-14.2-1.2","","502.86999996751547","Stim/Stim-GB/II_I.PNG","66","","","2","exp","400","1","0","C","v","false"
"html-keyboard-response","2585","127832","0.0-14.2-2.2","","null","<p> INCORRECT </p>","null","","","","","","","","","",""
"fixation-image-keyboard-release-original","2586","130114","0.0-14.3-1.3","","1278.3999999519438","Stim/Stim-GB/II_I.PNG","66","","","2","exp","100","1","0","C","v","false"
"html-keyboard-response","2587","131217","0.0-14.3-2.3","","null","<p> INCORRECT </p>","null","","","","","","","","","",""
"fixation-image-keyboard-release-original","2588","133089","0.0-14.4-1.4","","871.0199999623001","Stim/Stim-BG/MM_I.PNG","86","","","2","exp","100","2","0","IC","v","true"
"html-keyboard-response","2589","134191","0.0-14.4-2.4","","null","<p> CORRECT </p>","null","","","","","","","","","",""
"fixation-image-keyboard-release-original","2590","135617","0.0-15.0-1.0","","424.0449999924749","Stim/Stim-GB/NM_M.PNG","66","","","1","exp","700","2","1","C","b","true"
"html-keyboard-response","2591","136720","0.0-15.0-2.0","","null","<p> CORRECT </p>","null","","","","","","","","","",""
"fixation-image-keyboard-release-original","2592","138177","0.0-16.0-1.0","","454.41999996546656","Stim/Stim-GB/MM_M.PNG","66","","","2","exp","100","2","1","C","b","true"
"html-keyboard-response","2593","139280","0.0-16.0-2.0","","null","<p> CORRECT </p>","null","","","","","","","","","",""
"fixation-image-keyboard-release-original","2594","140657","0.0-17.0-1.0","","375.35500002559274","Stim/Stim-BG/II_I.PNG","86","","","2","exp","400","1","0","C","v","true"
"html-keyboard-response","2595","141759","0.0-17.0-2.0","","null","<p> CORRECT </p>","null","","","","","","","","","",""
"call-function","2596","141759","0.0-18.0","","","","","","","","","","","","","",""
"survey-html-form","2597","145862","0.0-19.0","","4101.7200000351295","","","{""hands"":""Right""}","","","","","","","","",""
"html-keyboard-response","2598","149922","0.0-20.0","","4059.235000051558","If you are using <strong><u>just</u></strong> your <strong></u>right hand</u></strong>, then good job! If not, please do so in the main part of the experiment.<br><br>Press Enter to continue","13","","","","","","","","","",""
"html-keyboard-response","2599","158321","0.0-21.0","","8398.879999993369","<div class = 'my_window'><h1>Main Trials</h1><p>Good Job! We will now begin the main trials. In the main trials, you will <strong>not</strong> get feedback. There are 192 trials overall. You will get a self-paced break every 48 trials.</p><p>Instructions Reminder: <p>Before each trial starts, please ensure that you keep the <strong><u>V key</u></strong> and <strong><u>B key</u></strong> depressed with your <strong><u>right index finger</u></strong> on the <strong><u>V key</u></strong> and your <strong><u>right middle finger</u></strong> on the <strong><u>B key</u></strong> (see image below). Responses on this experiment will consist of lifting your <strong><u>right index finger</u></strong> to release the <strong><u>V key</u></strong> if you see the letter <strong><u>I</u></strong> or lifting your <strong><u>right middle finger</u></strong> to release the <strong><u>B key</u></strong> if you see the letter <strong><u>M</u></strong> as fast as you can. It is important that you <strong><u>only use your right hand</u></strong> to do the task.</p><p><img src='keyboard_img.png'></p><p>While you complete this task, there will be a couple of hands moving in the background. Ignore them and focus on the task.</p><p>Remember: this is a reaction time experiment, so please try to respond as fast as possible while at the same time minimizing mistakes.</p><p>Press ENTER to begin.</p></div>","13","","","","","","","","","",""
"call-function","2600","158322","0.0-22.0","","","","","","","","","","","","","",""
"fixation-image-keyboard-release-original","3123","162641","0.0-23.0-1.0","","666.2249999353662","Stim/Stim-GB/MM_I.PNG","86","","","2","exp","400","2","0","IC","v","true"
"fixation-image-keyboard-release-original","3243","165657","0.0-23.0-1.1","","423.7399999983609","Stim/Stim-BG/NM_M.PNG","66","","","1","exp","100","2","1","C","b","true"
"fixation-image-keyboard-release-original","3244","168009","0.0-23.0-1.2","","349.9549999833107","Stim/Stim-GB/II_I.PNG","86","","","2","exp","400","1","0","C","v","true"
"fixation-image-keyboard-release-original","3245","170489","0.0-23.0-1.3","","472.0649999799207","Stim/Stim-GB/MN_I.PNG","86","","","1","exp","100","2","0","IC","v","true"
"fixation-image-keyboard-release-original","3246","172913","0.0-23.0-1.4","","421.40999995172024","Stim/Stim-BG/MN_I.PNG","86","","","1","exp","400","2","0","IC","v","true"
"fixation-image-keyboard-release-original","3247","175425","0.0-23.0-1.5","","508.06000002194196","Stim/Stim-GB/MN_M.PNG","66","","","1","exp","700","2","1","C","b","true"
"fixation-image-keyboard-release-original","3248","178105","0.0-23.0-1.6","","677.0750000141561","Stim/Stim-GB/II_M.PNG","66","","","2","exp","100","1","1","IC","b","true"
"fixation-image-keyboard-release-original","3249","180521","0.0-23.0-1.7","","413.0400000140071","Stim/Stim-GB/NM_I.PNG","66","","","1","exp","100","2","0","IC","v","false"
"fixation-image-keyboard-release-original","3250","182961","0.0-23.0-1.8","","436.92500004544854","Stim/Stim-GB/MN_I.PNG","86","","","1","exp","400","2","0","IC","v","true"
"fixation-image-keyboard-release-original","3251","185353","0.0-23.0-1.9","","389.5349999656901","Stim/Stim-BG/IN_I.PNG","86","","","1","exp","700","1","0","C","v","true"
"fixation-image-keyboard-release-original","3252","188233","0.0-23.0-1.10","","875.0699999509379","Stim/Stim-BG/II_M.PNG","66","","","2","exp","400","1","1","IC","b","true"
"fixation-image-keyboard-release-original","3253","190673","0.0-23.0-1.11","","436.5100000286475","Stim/Stim-GB/NM_M.PNG","66","","","1","exp","400","2","1","C","b","true"
"fixation-image-keyboard-release-original","3254","193154","0.0-23.0-1.12","","477.4149999720976","Stim/Stim-BG/NI_M.PNG","66","","","1","exp","700","1","1","IC","b","true"
"fixation-image-keyboard-release-original","3255","195834","0.0-23.0-1.13","","677.1350000053644","Stim/Stim-BG/MM_M.PNG","66","","","2","exp","700","2","1","C","b","true"
"fixation-image-keyboard-release-original","3256","198202","0.0-23.0-1.14","","363.31499996595085","Stim/Stim-BG/MM_M.PNG","66","","","2","exp","400","2","1","C","b","true"
"fixation-image-keyboard-release-original","3257","200570","0.0-23.0-1.15","","365.4350000433624","Stim/Stim-GB/MN_I.PNG","86","","","1","exp","400","2","0","IC","v","true"
"fixation-image-keyboard-release-original","3258","202914","0.0-23.0-1.16","","341.99500002432615","Stim/Stim-GB/MM_M.PNG","66","","","2","exp","100","2","1","C","b","true"
"fixation-image-keyboard-release-original","3259","205554","0.0-23.0-1.17","","636.2700000172481","Stim/Stim-GB/II_I.PNG","86","","","2","exp","400","1","0","C","v","true"
"fixation-image-keyboard-release-original","3260","207954","0.0-23.0-1.18","","397.1450000535697","Stim/Stim-BG/MN_I.PNG","86","","","1","exp","700","2","0","IC","v","true"
"fixation-image-keyboard-release-original","3261","210466","0.0-23.0-1.19","","508.8100000284612","Stim/Stim-BG/MM_I.PNG","86","","","2","exp","400","2","0","IC","v","true"
"fixation-image-keyboard-release-original","3262","213033","0.0-23.0-1.20","","564.8849999997765","Stim/Stim-GB/II_M.PNG","66","","","2","exp","100","1","1","IC","b","true"
"fixation-image-keyboard-release-original","3263","215394","0.0-23.0-1.21","","358.4099999861792","Stim/Stim-GB/IN_I.PNG","86","","","1","exp","700","1","0","C","v","true"
"fixation-image-keyboard-release-original","3264","217786","0.0-23.0-1.22","","386.9499999564141","Stim/Stim-GB/MM_I.PNG","66","","","2","exp","400","2","0","IC","v","false"
"fixation-image-keyboard-release-original","3265","220266","0.0-23.0-1.23","","478.0200000386685","Stim/Stim-GB/NI_I.PNG","86","","","1","exp","400","1","0","C","v","true"
"fixation-image-keyboard-release-original","3266","222786","0.0-23.0-1.24","","516.1899999948218","Stim/Stim-BG/NM_M.PNG","66","","","1","exp","400","2","1","C","b","true"
"fixation-image-keyboard-release-original","3267","225362","0.0-23.0-1.25","","573.1799999484792","Stim/Stim-GB/NI_I.PNG","86","","","1","exp","700","1","0","C","v","true"
"fixation-image-keyboard-release-original","3268","227858","0.0-23.0-1.26","","492.6650000270456","Stim/Stim-BG/MM_I.PNG","86","","","2","exp","100","2","0","IC","v","true"
"fixation-image-keyboard-release-original","3269","230298","0.0-23.0-1.27","","437.93999997433275","Stim/Stim-GB/IN_M.PNG","66","","","1","exp","100","1","1","IC","b","true"
"fixation-image-keyboard-release-original","3270","232801","0.0-23.0-1.28","","500.9899999713525","Stim/Stim-BG/NI_I.PNG","86","","","1","exp","400","1","0","C","v","true"
"fixation-image-keyboard-release-original","3271","235154","0.0-23.0-1.29","","349.0849999943748","Stim/Stim-BG/II_I.PNG","86","","","2","exp","400","1","0","C","v","true"
"fixation-image-keyboard-release-original","3272","237650","0.0-23.0-1.30","","492.45999997947365","Stim/Stim-BG/NM_I.PNG","86","","","1","exp","700","2","0","IC","v","true"
"fixation-image-keyboard-release-original","3273","240130","0.0-23.0-1.31","","476.55000002123415","Stim/Stim-BG/II_M.PNG","66","","","2","exp","700","1","1","IC","b","true"
"fixation-image-keyboard-release-original","3274","242618","0.0-23.0-1.32","","485.80999998375773","Stim/Stim-BG/NI_M.PNG","66","","","1","exp","400","1","1","IC","b","true"
"fixation-image-keyboard-release-original","3275","244994","0.0-23.0-1.33","","374.0600000601262","Stim/Stim-GB/MM_I.PNG","86","","","2","exp","700","2","0","IC","v","true"
"fixation-image-keyboard-release-original","3276","247442","0.0-23.0-1.34","","444.58999997004867","Stim/Stim-BG/NM_I.PNG","86","","","1","exp","700","2","0","IC","v","true"
"fixation-image-keyboard-release-original","3277","249834","0.0-23.0-1.35","","387.929999968037","Stim/Stim-BG/IN_I.PNG","86","","","1","exp","100","1","0","C","v","true"
"fixation-image-keyboard-release-original","3278","252250","0.0-23.0-1.36","","412.25000005215406","Stim/Stim-GB/NI_M.PNG","66","","","1","exp","100","1","1","IC","b","true"
"fixation-image-keyboard-release-original","3279","254690","0.0-23.0-1.37","","436.54999998398125","Stim/Stim-BG/NI_I.PNG","86","","","1","exp","400","1","0","C","v","true"
"fixation-image-keyboard-release-original","3280","257089","0.0-23.0-1.38","","397.0800000242889","Stim/Stim-BG/NI_I.PNG","86","","","1","exp","100","1","0","C","v","true"
"fixation-image-keyboard-release-original","3281","259537","0.0-23.0-1.39","","444.78999997954816","Stim/Stim-GB/MN_I.PNG","86","","","1","exp","700","2","0","IC","v","true"
"fixation-image-keyboard-release-original","3282","261994","0.0-23.0-1.40","","453.40500003658235","Stim/Stim-GB/MN_M.PNG","66","","","1","exp","100","2","1","C","b","true"
"fixation-image-keyboard-release-original","3283","264410","0.0-23.0-1.41","","413.86500000953674","Stim/Stim-GB/MM_I.PNG","86","","","2","exp","400","2","0","IC","v","true"
"fixation-image-keyboard-release-original","3284","266841","0.0-23.0-1.42","","427.8450000565499","Stim/Stim-BG/MM_I.PNG","86","","","2","exp","400","2","0","IC","v","true"
"fixation-image-keyboard-release-original","3285","269426","0.0-23.0-1.43","","580.2249999251217","Stim/Stim-BG/MN_M.PNG","66","","","1","exp","400","2","1","C","b","true"
"fixation-image-keyboard-release-original","3286","271874","0.0-23.0-1.44","","444.09499992616475","Stim/Stim-GB/NI_M.PNG","66","","","1","exp","400","1","1","IC","b","true"
"fixation-image-keyboard-release-original","3287","274370","0.0-23.0-1.45","","491.7850000783801","Stim/Stim-BG/MM_M.PNG","66","","","2","exp","100","2","1","C","b","true"
"fixation-image-keyboard-release-original","3288","276834","0.0-23.0-1.46","","461.94499998819083","Stim/Stim-BG/II_M.PNG","66","","","2","exp","100","1","1","IC","b","true"
"fixation-image-keyboard-release-original","3289","279393","0.0-23.0-1.47","","557.7950000297278","Stim/Stim-GB/NM_I.PNG","86","","","1","exp","400","2","0","IC","v","true"
"html-keyboard-response","3290","283634","0.0-23.0-2.47-0.47","","3238.4649999439716","Take a break. Feel free to start again by pressing Enter.","13","","","","","","","","","",""
"fixation-image-keyboard-release-original","3437","285826","0.0-23.0-1.48","","457.9249999951571","Stim/Stim-GB/MM_M.PNG","66","","","2","exp","700","2","1","C","b","true"
"fixation-image-keyboard-release-original","3438","288154","0.0-23.0-1.49","","324.9749999959022","Stim/Stim-BG/II_I.PNG","86","","","2","exp","700","1","0","C","v","true"
"fixation-image-keyboard-release-original","3439","290578","0.0-23.0-1.50","","421.65999999269843","Stim/Stim-GB/IN_I.PNG","86","","","1","exp","100","1","0","C","v","true"
"fixation-image-keyboard-release-original","3440","292985","0.0-23.0-1.51","","404.6249999664724","Stim/Stim-GB/NI_M.PNG","66","","","1","exp","100","1","1","IC","b","true"
"fixation-image-keyboard-release-original","3441","295386","0.0-23.0-1.52","","398.3549999538809","Stim/Stim-GB/MN_I.PNG","86","","","1","exp","100","2","0","IC","v","true"
"fixation-image-keyboard-release-original","3442","297762","0.0-23.0-1.53","","373.52000002283603","Stim/Stim-BG/II_I.PNG","86","","","2","exp","400","1","0","C","v","true"
"fixation-image-keyboard-release-original","3443","300073","0.0-23.0-1.54","","308.12499998137355","Stim/Stim-BG/IN_M.PNG","66","","","1","exp","400","1","1","IC","b","true"
"fixation-image-keyboard-release-original","3444","302434","0.0-23.0-1.55","","356.35500005446374","Stim/Stim-BG/NI_M.PNG","66","","","1","exp","400","1","1","IC","b","true"
"fixation-image-keyboard-release-original","3445","304890","0.0-23.0-1.56","","453.1849999912083","Stim/Stim-BG/MN_M.PNG","66","","","1","exp","700","2","1","C","b","true"
"fixation-image-keyboard-release-original","3446","307353","0.0-23.0-1.57","","460.1600000169128","Stim/Stim-BG/MM_I.PNG","86","","","2","exp","100","2","0","IC","v","true"
"fixation-image-keyboard-release-original","3447","309714","0.0-23.0-1.58","","357.30499995406717","Stim/Stim-BG/MM_I.PNG","86","","","2","exp","100","2","0","IC","v","true"
"fixation-image-keyboard-release-original","3448","312042","0.0-23.0-1.59","","324.93999996222556","Stim/Stim-BG/NM_I.PNG","86","","","1","exp","100","2","0","IC","v","true"
"fixation-image-keyboard-release-original","3449","314441","0.0-23.0-1.60","","397.0249999547377","Stim/Stim-BG/NI_M.PNG","66","","","1","exp","100","1","1","IC","b","true"
"fixation-image-keyboard-release-original","3450","316865","0.0-23.0-1.61","","421.1900000227615","Stim/Stim-BG/IN_M.PNG","66","","","1","exp","400","1","1","IC","b","true"
"fixation-image-keyboard-release-original","3451","319201","0.0-23.0-1.62","","332.16499991249293","Stim/Stim-GB/II_I.PNG","86","","","2","exp","400","1","0","C","v","true"
"fixation-image-keyboard-release-original","3452","321529","0.0-23.0-1.63","","325.21500007715076","Stim/Stim-GB/NM_M.PNG","66","","","1","exp","400","2","1","C","b","true"
"fixation-image-keyboard-release-original","3453","323857","0.0-23.0-1.64","","325.52499999292195","Stim/Stim-GB/IN_I.PNG","86","","","1","exp","100","1","0","C","v","true"
"fixation-image-keyboard-release-original","3454","326233","0.0-23.0-1.65","","372.9499999899417","Stim/Stim-BG/MM_I.PNG","66","","","2","exp","700","2","0","IC","v","false"
"fixation-image-keyboard-release-original","3455","328641","0.0-23.0-1.66","","404.7599999466911","Stim/Stim-GB/IN_M.PNG","86","","","1","exp","700","1","1","IC","b","false"
"fixation-image-keyboard-release-original","3456","331129","0.0-23.0-1.67","","485.6249999720603","Stim/Stim-GB/MM_M.PNG","66","","","2","exp","700","2","1","C","b","true"
"fixation-image-keyboard-release-original","3457","333553","0.0-23.0-1.68","","422.17000003438443","Stim/Stim-BG/MN_M.PNG","66","","","1","exp","100","2","1","C","b","true"
"fixation-image-keyboard-release-original","3458","335929","0.0-23.0-1.69","","374.0700000198558","Stim/Stim-BG/MN_I.PNG","86","","","1","exp","100","2","0","IC","v","true"
"fixation-image-keyboard-release-original","3459","338297","0.0-23.0-1.70","","364.13500003982335","Stim/Stim-GB/MM_I.PNG","86","","","2","exp","400","2","0","IC","v","true"
"fixation-image-keyboard-release-original","3460","340817","0.0-23.0-1.71","","516.5600000182167","Stim/Stim-GB/NI_M.PNG","66","","","1","exp","700","1","1","IC","b","true"
"fixation-image-keyboard-release-original","3461","343513","0.0-23.0-1.72","","693.0649999994785","Stim/Stim-BG/II_I.PNG","86","","","2","exp","700","1","0","C","v","true"
"fixation-image-keyboard-release-original","3462","345929","0.0-23.0-1.73","","412.95499994885176","Stim/Stim-GB/MN_I.PNG","86","","","1","exp","700","2","0","IC","v","true"
"fixation-image-keyboard-release-original","3463","348385","0.0-23.0-1.74","","453.60500004608184","Stim/Stim-GB/MM_I.PNG","86","","","2","exp","100","2","0","IC","v","true"
"fixation-image-keyboard-release-original","3464","350745","0.0-23.0-1.75","","357.9100000206381","Stim/Stim-GB/NM_M.PNG","66","","","1","exp","100","2","1","C","b","true"
"fixation-image-keyboard-release-original","3465","353345","0.0-23.0-1.76","","598.3199999900535","Stim/Stim-GB/MN_M.PNG","66","","","1","exp","100","2","1","C","b","true"
"fixation-image-keyboard-release-original","3466","355825","0.0-23.0-1.77","","476.76999995019287","Stim/Stim-BG/II_M.PNG","66","","","2","exp","700","1","1","IC","b","true"
"fixation-image-keyboard-release-original","3467","358265","0.0-23.0-1.78","","436.2599999876693","Stim/Stim-BG/NI_I.PNG","86","","","1","exp","700","1","0","C","v","true"
"fixation-image-keyboard-release-original","3468","360714","0.0-23.0-1.79","","446.50499999988824","Stim/Stim-BG/IN_M.PNG","66","","","1","exp","700","1","1","IC","b","true"
"fixation-image-keyboard-release-original","3469","363154","0.0-23.0-1.80","","436.58000009600073","Stim/Stim-GB/IN_I.PNG","86","","","1","exp","400","1","0","C","v","true"
"fixation-image-keyboard-release-original","3470","365529","0.0-23.0-1.81","","372.7499999804422","Stim/Stim-BG/II_M.PNG","66","","","2","exp","400","1","1","IC","b","true"
"fixation-image-keyboard-release-original","3471","367961","0.0-23.0-1.82","","429.26500004250556","Stim/Stim-GB/II_M.PNG","66","","","2","exp","700","1","1","IC","b","true"
"fixation-image-keyboard-release-original","3472","370386","0.0-23.0-1.83","","422.8200000943616","Stim/Stim-GB/MM_M.PNG","66","","","2","exp","700","2","1","C","b","true"
"fixation-image-keyboard-release-original","3473","372809","0.0-23.0-1.84","","420.4349999781698","Stim/Stim-GB/NI_M.PNG","66","","","1","exp","700","1","1","IC","b","true"
"fixation-image-keyboard-release-original","3474","375281","0.0-23.0-1.85","","470.04499996546656","Stim/Stim-GB/NM_I.PNG","86","","","1","exp","700","2","0","IC","v","true"
"fixation-image-keyboard-release-original","3475","377817","0.0-23.0-1.86","","533.2700000144541","Stim/Stim-BG/II_M.PNG","66","","","2","exp","100","1","1","IC","b","true"
"fixation-image-keyboard-release-original","3476","380233","0.0-23.0-1.87","","412.80000004917383","Stim/Stim-GB/NM_I.PNG","86","","","1","exp","400","2","0","IC","v","true"
"fixation-image-keyboard-release-original","3477","382561","0.0-23.0-1.88","","325.52499999292195","Stim/Stim-GB/II_M.PNG","66","","","2","exp","700","1","1","IC","b","true"
"fixation-image-keyboard-release-original","3478","385001","0.0-23.0-1.89","","437.26999999489635","Stim/Stim-BG/NI_I.PNG","86","","","1","exp","100","1","0","C","v","true"
"fixation-image-keyboard-release-original","3479","387625","0.0-23.0-1.90","","621.904999949038","Stim/Stim-GB/NI_I.PNG","86","","","1","exp","100","1","0","C","v","true"
"fixation-image-keyboard-release-original","3480","389985","0.0-23.0-1.91","","355.2899999776855","Stim/Stim-BG/MM_M.PNG","66","","","2","exp","100","2","1","C","b","true"
"fixation-image-keyboard-release-original","3481","392417","0.0-23.0-1.92","","428.76999999862164","Stim/Stim-GB/II_I.PNG","86","","","2","exp","400","1","0","C","v","true"
"fixation-image-keyboard-release-original","3482","394793","0.0-23.0-1.93","","372.99499998334795","Stim/Stim-BG/IN_I.PNG","86","","","1","exp","400","1","0","C","v","true"
"fixation-image-keyboard-release-original","3483","397177","0.0-23.0-1.94","","381.96999998763204","Stim/Stim-GB/NI_I.PNG","86","","","1","exp","100","1","0","C","v","true"
"fixation-image-keyboard-release-original","3484","399593","0.0-23.0-1.95","","413.7500000651926","Stim/Stim-GB/IN_M.PNG","66","","","1","exp","400","1","1","IC","b","true"
"html-keyboard-response","3485","409017","0.0-23.0-2.95-0.95","","8422.804999980144","Take a break. Feel free to start again by pressing Enter.","13","","","","","","","","","",""
"fixation-image-keyboard-release-original","3724","411689","0.0-23.0-1.96","","461.32500004023314","Stim/Stim-BG/NI_I.PNG","86","","","1","exp","700","1","0","C","v","true"
"fixation-image-keyboard-release-original","3725","414113","0.0-23.0-1.97","","419.3550000200048","Stim/Stim-BG/MN_I.PNG","86","","","1","exp","100","2","0","IC","v","true"
"fixation-image-keyboard-release-original","3726","416481","0.0-23.0-1.98","","363.93499991390854","Stim/Stim-GB/NM_M.PNG","86","","","1","exp","700","2","1","C","b","false"
"fixation-image-keyboard-release-original","3727","418993","0.0-23.0-1.99","","510.2000000188127","Stim/Stim-BG/II_M.PNG","66","","","2","exp","400","1","1","IC","b","true"
"fixation-image-keyboard-release-original","3728","421409","0.0-23.0-1.100","","412.2950000455603","Stim/Stim-GB/II_M.PNG","66","","","2","exp","400","1","1","IC","b","true"
"fixation-image-keyboard-release-original","3729","423833","0.0-23.0-1.101","","421.3300000410527","Stim/Stim-BG/II_M.PNG","66","","","2","exp","100","1","1","IC","b","true"
"fixation-image-keyboard-release-original","3730","426177","0.0-23.0-1.102","","339.76000000257045","Stim/Stim-GB/IN_M.PNG","86","","","1","exp","100","1","1","IC","b","false"
"fixation-image-keyboard-release-original","3731","428433","0.0-23.0-1.103","","251.83500000275671","Stim/Stim-BG/IN_M.PNG","86","","","1","exp","100","1","1","IC","b","false"
"fixation-image-keyboard-release-original","3732","430706","0.0-23.0-1.104","","268.73500004876405","Stim/Stim-GB/MM_M.PNG","86","","","2","exp","400","2","1","C","b","false"
"fixation-image-keyboard-release-original","3733","433241","0.0-23.0-1.105","","533.2649999763817","Stim/Stim-GB/MN_M.PNG","66","","","1","exp","400","2","1","C","b","true"
"fixation-image-keyboard-release-original","3734","435585","0.0-23.0-1.106","","340.22000001277775","Stim/Stim-GB/IN_I.PNG","86","","","1","exp","400","1","0","C","v","true"
"fixation-image-keyboard-release-original","3735","437929","0.0-23.0-1.107","","339.15000001434237","Stim/Stim-BG/MM_M.PNG","66","","","2","exp","400","2","1","C","b","true"
"fixation-image-keyboard-release-original","3736","440337","0.0-23.0-1.108","","404.5150000602007","Stim/Stim-BG/MM_I.PNG","86","","","2","exp","400","2","0","IC","v","true"
"fixation-image-keyboard-release-original","3737","442753","0.0-23.0-1.109","","412.53500001039356","Stim/Stim-BG/NM_I.PNG","86","","","1","exp","400","2","0","IC","v","true"
"fixation-image-keyboard-release-original","3738","445137","0.0-23.0-1.110","","380.8350000763312","Stim/Stim-BG/MM_M.PNG","66","","","2","exp","700","2","1","C","b","true"
"fixation-image-keyboard-release-original","3739","447569","0.0-23.0-1.111","","429.7800000058487","Stim/Stim-GB/II_M.PNG","66","","","2","exp","100","1","1","IC","b","true"
"fixation-image-keyboard-release-original","3740","450009","0.0-23.0-1.112","","437.57999991066754","Stim/Stim-GB/II_M.PNG","66","","","2","exp","700","1","1","IC","b","true"
"fixation-image-keyboard-release-original","3741","452498","0.0-23.0-1.113","","486.3449999829754","Stim/Stim-GB/II_M.PNG","66","","","2","exp","100","1","1","IC","b","true"
"fixation-image-keyboard-release-original","3742","454889","0.0-23.0-1.114","","388.4150000521913","Stim/Stim-BG/NM_M.PNG","66","","","1","exp","700","2","1","C","b","true"
"fixation-image-keyboard-release-original","3743","457257","0.0-23.0-1.115","","364.85500005073845","Stim/Stim-GB/IN_M.PNG","66","","","1","exp","700","1","1","IC","b","true"
"fixation-image-keyboard-release-original","3744","459857","0.0-23.0-1.116","","598.1649999739602","Stim/Stim-BG/NM_I.PNG","86","","","1","exp","100","2","0","IC","v","true"
"fixation-image-keyboard-release-original","3745","462185","0.0-23.0-1.117","","326.0550000704825","Stim/Stim-GB/NM_M.PNG","66","","","1","exp","700","2","1","C","b","true"
"fixation-image-keyboard-release-original","3746","464545","0.0-23.0-1.118","","356.51499999221414","Stim/Stim-GB/MN_M.PNG","66","","","1","exp","400","2","1","C","b","true"
"fixation-image-keyboard-release-original","3747","466985","0.0-23.0-1.119","","437.28500010911375","Stim/Stim-GB/II_I.PNG","86","","","2","exp","700","1","0","C","v","true"
"fixation-image-keyboard-release-original","3748","469361","0.0-23.0-1.120","","372.6449999958277","Stim/Stim-GB/NM_M.PNG","66","","","1","exp","100","2","1","C","b","true"
"fixation-image-keyboard-release-original","3749","471817","0.0-23.0-1.121","","452.1399999503046","Stim/Stim-BG/II_I.PNG","86","","","2","exp","100","1","0","C","v","true"
"fixation-image-keyboard-release-original","3750","474169","0.0-23.0-1.122","","349.0349999628961","Stim/Stim-BG/II_M.PNG","66","","","2","exp","100","1","1","IC","b","true"
"fixation-image-keyboard-release-original","3751","476513","0.0-23.0-1.123","","342.12000004481524","Stim/Stim-BG/II_I.PNG","86","","","2","exp","100","1","0","C","v","true"
"fixation-image-keyboard-release-original","3752","478993","0.0-23.0-1.124","","477.48000000137836","Stim/Stim-GB/MM_I.PNG","86","","","2","exp","700","2","0","IC","v","true"
"fixation-image-keyboard-release-original","3753","481330","0.0-23.0-1.125","","333.61500001046807","Stim/Stim-BG/MN_M.PNG","66","","","1","exp","700","2","1","C","b","true"
"fixation-image-keyboard-release-original","3754","483809","0.0-23.0-1.126","","475.6500000366941","Stim/Stim-GB/II_M.PNG","66","","","2","exp","700","1","1","IC","b","true"
"fixation-image-keyboard-release-original","3755","486209","0.0-23.0-1.127","","395.71999991312623","Stim/Stim-BG/II_I.PNG","86","","","2","exp","400","1","0","C","v","true"
"fixation-image-keyboard-release-original","3756","488713","0.0-23.0-1.128","","500.705000013113","Stim/Stim-GB/MM_M.PNG","66","","","2","exp","400","2","1","C","b","true"
"fixation-image-keyboard-release-original","3757","491089","0.0-23.0-1.129","","372.77500005438924","Stim/Stim-GB/II_I.PNG","86","","","2","exp","700","1","0","C","v","true"
"fixation-image-keyboard-release-original","3758","493497","0.0-23.0-1.130","","405.11499997228384","Stim/Stim-GB/MM_M.PNG","66","","","2","exp","400","2","1","C","b","true"
"fixation-image-keyboard-release-original","3759","495833","0.0-23.0-1.131","","332.23000005818903","Stim/Stim-BG/II_I.PNG","86","","","2","exp","700","1","0","C","v","true"
"fixation-image-keyboard-release-original","3760","498145","0.0-23.0-1.132","","309.6200000727549","Stim/Stim-GB/MM_M.PNG","66","","","2","exp","100","2","1","C","b","true"
"fixation-image-keyboard-release-original","3761","500506","0.0-23.0-1.133","","355.85499997250736","Stim/Stim-GB/II_I.PNG","86","","","2","exp","100","1","0","C","v","true"
"fixation-image-keyboard-release-original","3762","503089","0.0-23.0-1.134","","581.1899999389425","Stim/Stim-BG/MM_I.PNG","86","","","2","exp","100","2","0","IC","v","true"
"fixation-image-keyboard-release-original","3763","505449","0.0-23.0-1.135","","356.21500003617257","Stim/Stim-BG/MM_M.PNG","66","","","2","exp","400","2","1","C","b","true"
"fixation-image-keyboard-release-original","3764","507881","0.0-23.0-1.136","","429.15500001981854","Stim/Stim-BG/MN_M.PNG","66","","","1","exp","400","2","1","C","b","true"
"fixation-image-keyboard-release-original","3765","510337","0.0-23.0-1.137","","452.92500010691583","Stim/Stim-BG/MN_I.PNG","86","","","1","exp","400","2","0","IC","v","true"
"fixation-image-keyboard-release-original","3766","512777","0.0-23.0-1.138","","437.71500000730157","Stim/Stim-BG/NI_M.PNG","66","","","1","exp","700","1","1","IC","b","true"
"fixation-image-keyboard-release-original","3767","515185","0.0-23.0-1.139","","405.3050000220537","Stim/Stim-BG/IN_M.PNG","66","","","1","exp","700","1","1","IC","b","true"
"fixation-image-keyboard-release-original","3768","519761","0.0-23.0-1.140","","2572.995000053197","Stim/Stim-GB/NM_I.PNG","86","","","1","exp","700","2","0","IC","v","true"
"fixation-image-keyboard-release-original","3769","522153","0.0-23.0-1.141","","388.50499992258847","Stim/Stim-BG/NM_M.PNG","66","","","1","exp","100","2","1","C","b","true"
"fixation-image-keyboard-release-original","3770","524537","0.0-23.0-1.142","","382.00500002130866","Stim/Stim-BG/II_I.PNG","86","","","2","exp","100","1","0","C","v","true"
"fixation-image-keyboard-release-original","3771","526881","0.0-23.0-1.143","","341.2649999372661","Stim/Stim-GB/MM_M.PNG","66","","","2","exp","400","2","1","C","b","true"
"html-keyboard-response","3772","567394","0.0-23.0-2.143-0.143","","39510.00999996904","Take a break. Feel free to start again by pressing Enter.","13","","","","","","","","","",""
"fixation-image-keyboard-release-original","3979","570162","0.0-23.0-1.144","","669.4549999665469","Stim/Stim-BG/MM_M.PNG","66","","","2","exp","400","2","1","C","b","true"
"fixation-image-keyboard-release-original","3980","572570","0.0-23.0-1.145","","404.68999999575317","Stim/Stim-BG/MM_I.PNG","86","","","2","exp","700","2","0","IC","v","true"
"fixation-image-keyboard-release-original","3981","574906","0.0-23.0-1.146","","333.0500000156462","Stim/Stim-BG/II_I.PNG","86","","","2","exp","100","1","0","C","v","true"
"fixation-image-keyboard-release-original","3982","577313","0.0-23.0-1.147","","405.280000064522","Stim/Stim-GB/II_M.PNG","66","","","2","exp","400","1","1","IC","b","true"
"fixation-image-keyboard-release-original","3983","579601","0.0-23.0-1.148","","285.7549999607727","Stim/Stim-GB/II_I.PNG","86","","","2","exp","100","1","0","C","v","true"
"fixation-image-keyboard-release-original","3984","582042","0.0-23.0-1.149","","436.99499999638647","Stim/Stim-GB/MM_M.PNG","66","","","2","exp","100","2","1","C","b","true"
"fixation-image-keyboard-release-original","3985","584434","0.0-23.0-1.150","","390.34499996341765","Stim/Stim-GB/MM_M.PNG","66","","","2","exp","100","2","1","C","b","true"
"fixation-image-keyboard-release-original","3986","586697","0.0-23.0-1.151","","261.1800000304356","Stim/Stim-BG/IN_I.PNG","86","","","1","exp","400","1","0","C","v","true"
"fixation-image-keyboard-release-original","3987","589282","0.0-23.0-1.152","","568.7700000125915","Stim/Stim-GB/MM_I.PNG","86","","","2","exp","100","2","0","IC","v","true"
"fixation-image-keyboard-release-original","3988","591658","0.0-23.0-1.153","","373.1499999994412","Stim/Stim-BG/IN_I.PNG","86","","","1","exp","700","1","0","C","v","true"
"fixation-image-keyboard-release-original","3989","594042","0.0-23.0-1.154","","381.7349999444559","Stim/Stim-GB/II_M.PNG","66","","","2","exp","400","1","1","IC","b","true"
"fixation-image-keyboard-release-original","3990","596586","0.0-23.0-1.155","","541.9899999396876","Stim/Stim-BG/MM_M.PNG","66","","","2","exp","100","2","1","C","b","true"
"fixation-image-keyboard-release-original","3991","599242","0.0-23.0-1.156","","651.9450000487268","Stim/Stim-GB/MM_I.PNG","86","","","2","exp","100","2","0","IC","v","true"
"fixation-image-keyboard-release-original","3992","601985","0.0-23.0-1.157","","740.9450000850484","Stim/Stim-BG/MM_M.PNG","66","","","2","exp","700","2","1","C","b","true"
"fixation-image-keyboard-release-original","3993","604410","0.0-23.0-1.158","","422.02000005636364","Stim/Stim-GB/MN_M.PNG","66","","","1","exp","700","2","1","C","b","true"
"fixation-image-keyboard-release-original","3994","607113","0.0-23.0-1.159","","700.7549999980256","Stim/Stim-BG/MM_I.PNG","86","","","2","exp","700","2","0","IC","v","true"
"fixation-image-keyboard-release-original","3995","609499","0.0-23.0-1.160","","382.3199999751523","Stim/Stim-GB/II_I.PNG","86","","","2","exp","700","1","0","C","v","true"
"fixation-image-keyboard-release-original","3996","611786","0.0-23.0-1.161","","283.8149999734014","Stim/Stim-GB/II_I.PNG","66","","","2","exp","100","1","0","C","v","false"
"fixation-image-keyboard-release-original","3997","613874","0.0-23.0-1.162","","84.5899999840185","Stim/Stim-BG/II_M.PNG","86","","","2","exp","400","1","1","IC","b","false"
"fixation-image-keyboard-release-original","3998","616018","0.0-23.0-1.163","","139.98500001616776","Stim/Stim-GB/II_I.PNG","86","","","2","exp","700","1","0","C","v","true"
"fixation-image-keyboard-release-original","3999","618458","0.0-23.0-1.164","","404.2999999364838","Stim/Stim-BG/II_M.PNG","66","","","2","exp","700","1","1","IC","b","true"
"fixation-image-keyboard-release-original","4000","620866","0.0-23.0-1.165","","406.08500002417713","Stim/Stim-BG/NM_I.PNG","86","","","1","exp","400","2","0","IC","v","true"
"fixation-image-keyboard-release-original","4001","623370","0.0-23.0-1.166","","500.04499999340624","Stim/Stim-GB/IN_I.PNG","86","","","1","exp","700","1","0","C","v","true"
"fixation-image-keyboard-release-original","4002","625738","0.0-23.0-1.167","","365.47499999869615","Stim/Stim-BG/NM_M.PNG","66","","","1","exp","400","2","1","C","b","true"
"fixation-image-keyboard-release-original","4003","628073","0.0-23.0-1.168","","334.3200000235811","Stim/Stim-GB/II_I.PNG","86","","","2","exp","100","1","0","C","v","true"
"fixation-image-keyboard-release-original","4004","630441","0.0-23.0-1.169","","364.25500002224","Stim/Stim-GB/NI_M.PNG","66","","","1","exp","400","1","1","IC","b","true"
"fixation-image-keyboard-release-original","4005","633009","0.0-23.0-1.170","","564.8950000759214","Stim/Stim-BG/II_M.PNG","66","","","2","exp","700","1","1","IC","b","true"
"fixation-image-keyboard-release-original","4006","636009","0.0-23.0-1.171","","996.0100000025705","Stim/Stim-GB/NI_I.PNG","86","","","1","exp","400","1","0","C","v","true"
"fixation-image-keyboard-release-original","4007","638337","0.0-23.0-1.172","","325.0199999893084","Stim/Stim-BG/MM_M.PNG","66","","","2","exp","700","2","1","C","b","true"
"fixation-image-keyboard-release-original","4008","640729","0.0-23.0-1.173","","388.95499997306615","Stim/Stim-GB/NI_I.PNG","86","","","1","exp","700","1","0","C","v","true"
"fixation-image-keyboard-release-original","4009","643057","0.0-23.0-1.174","","325.07999998051673","Stim/Stim-BG/NM_M.PNG","66","","","1","exp","700","2","1","C","b","true"
"fixation-image-keyboard-release-original","4010","645545","0.0-23.0-1.175","","484.8600000841543","Stim/Stim-BG/MM_M.PNG","66","","","2","exp","100","2","1","C","b","true"
"fixation-image-keyboard-release-original","4011","647857","0.0-23.0-1.176","","309.97500009834766","Stim/Stim-BG/MN_I.PNG","86","","","1","exp","700","2","0","IC","v","true"
"fixation-image-keyboard-release-original","4012","650283","0.0-23.0-1.177","","419.7849999181926","Stim/Stim-GB/IN_M.PNG","66","","","1","exp","400","1","1","IC","b","true"
"fixation-image-keyboard-release-original","4013","652609","0.0-23.0-1.178","","323.9550000289455","Stim/Stim-BG/NI_M.PNG","66","","","1","exp","100","1","1","IC","b","true"
"fixation-image-keyboard-release-original","4014","655025","0.0-23.0-1.179","","413.01999997813255","Stim/Stim-BG/MN_M.PNG","66","","","1","exp","100","2","1","C","b","true"
"fixation-image-keyboard-release-original","4015","657633","0.0-23.0-1.180","","587.1299999998882","Stim/Stim-GB/MM_I.PNG","86","","","2","exp","100","2","0","IC","v","true"
"fixation-image-keyboard-release-original","4016","660137","0.0-23.0-1.181","","499.55000006593764","Stim/Stim-BG/MM_I.PNG","86","","","2","exp","700","2","0","IC","v","true"
"fixation-image-keyboard-release-original","4017","662513","0.0-23.0-1.182","","373.3650000067428","Stim/Stim-GB/II_M.PNG","66","","","2","exp","400","1","1","IC","b","true"
"fixation-image-keyboard-release-original","4018","664953","0.0-23.0-1.183","","436.88499997369945","Stim/Stim-GB/MM_I.PNG","86","","","2","exp","700","2","0","IC","v","true"
"fixation-image-keyboard-release-original","4019","667425","0.0-23.0-1.184","","467.780000064522","Stim/Stim-BG/IN_M.PNG","66","","","1","exp","100","1","1","IC","b","true"
"fixation-image-keyboard-release-original","4020","669873","0.0-23.0-1.185","","446.17000001017004","Stim/Stim-BG/II_I.PNG","86","","","2","exp","400","1","0","C","v","true"
"fixation-image-keyboard-release-original","4021","672329","0.0-23.0-1.186","","453.0399999348447","Stim/Stim-GB/MM_I.PNG","86","","","2","exp","700","2","0","IC","v","true"
"fixation-image-keyboard-release-original","4022","674721","0.0-23.0-1.187","","388.8850000221282","Stim/Stim-GB/NM_I.PNG","86","","","1","exp","100","2","0","IC","v","true"
"fixation-image-keyboard-release-original","4023","677153","0.0-23.0-1.188","","429.75999996997416","Stim/Stim-GB/MM_M.PNG","66","","","2","exp","700","2","1","C","b","true"
"fixation-image-keyboard-release-original","4024","679474","0.0-23.0-1.189","","318.59000003896654","Stim/Stim-BG/IN_I.PNG","86","","","1","exp","100","1","0","C","v","true"
"fixation-image-keyboard-release-original","4025","681929","0.0-23.0-1.190","","453.01000005565584","Stim/Stim-BG/MM_I.PNG","86","","","2","exp","400","2","0","IC","v","true"
"fixation-image-keyboard-release-original","4026","684369","0.0-23.0-1.191","","436.70999992173165","Stim/Stim-BG/II_I.PNG","86","","","2","exp","700","1","0","C","v","true"
"call-function","4027","685371","0.0-24.0","","","","","","","","","","","","","",""
"survey-html-form","4028","688825","0.0-25.0","","3451.145000057295","","","{""hands2"":""Right""}","","","","","","","","",""
"html-keyboard-response","4029","745202","0.0-26.0","","56375.860000029206","<p><h1>This is the end of the experiment.</h1></p><p>Please <a href='Debrief.pdf' target='_blank'>Click Here</a> (this will open a new window) to read more about the study.</p><p>Press ENTER to end the experiment (you will be sent to Prolific - if something goes wrong, the completion code for this study is: 3F11CBBF).</p>","13","","","","","","","","","",""
