"trial_type","trial_index","time_elapsed","internal_node_id","value","rt","stimulus","key_press","responses","success","hand","test","gap","finger","cue","con","correct_response","correct"
"pavlovia","0","3","0.0-0.0","","","","","","","","","","","","","",""
"call-function","1","3","0.0-1.0","","","","","","","","","","","","","",""
"html-keyboard-response","2","31864","0.0-2.0","","31859.87000000023","<div class = 'my_window'><p><h1>Welcome!</h1><br><p><p>This experiment is adminterested by Carl Michael Galang (McMaster University), Dr. Emiel Cracco (Ghent University), Dr. Marcel Brass (Humboldt University of Berlin), & Dr. Sukhvinder Obhi (McMaster University).</p><p>The purpose of this study is to explore basic perceptual processing mechanisms.</p><p>Information gathered during this study will be written up for publication in an academic journal. While there are no direct benefits to you taking part in this study (other than learning more about the research topic and getting paid on Prolific), the results of this study will provide us with a better understanding of perceptual and sensory processes. To learn about this study, particularly in the terms of any associated risks or harms, how confidentiality and anonymity will be handled, withdrawal procedures, incentives that are promised, how to obtain information about the results, etc., please read the accompanying letter of information - <a href='LOI.pdf' target='_blank'>Click Here</a> (this will open a new window).</p><p>This study should take around 10min to complete.</p><p>If you have questions or need more information about the study itself, please contact me at: galangc@mcmaster.ca. This study has been reviewed by the McMaster University Research Ethics Board and received ethics clearance. If you have concerns or questions about your rights as a participant or about the way the study is conducted, please contact the McMaster Research Ethics Secretariat at ethicsoffice@mcmaster.ca.</p><br><p><h1>CONSENT</h1></p><p>I have read the information presented in the letter of information and I agree to participate in this study.</p><p>By pressing Enter, I consent to the above.<p>","13","","","","","","","","","",""
"survey-html-form","3","41927","0.0-3.0","","10062.410000000003","","","{""1"":""5ff761becf35e2409a895e1b""}","","","","","","","","",""
"fullscreen","4","44895","0.0-4.0","","","","","","true","","","","","","","",""
"call-function","5","44896","0.0-5.0","","","","","","","","","","","","","",""
"html-keyboard-response","6","79489","0.0-6.0","","34591.19499999996","<div class = 'my_window'><h1>Instructions</h1><p>Your task in this experiment is to respond to the letters I or M as they appear on the screen. Unlike most experiments, your task will be to <strong><u>release</u></strong> keys (not push).</p><p>Before each trial starts, please ensure that you keep the <strong><u>V key</u></strong> and <strong><u>B key</u></strong> depressed with your <strong><u>right index finger</u></strong> on the <strong><u>V key</u></strong> and your <strong><u>right middle finger</u></strong> on the <strong><u>B key</u></strong> (see image below). Responses on this experiment will consist of lifting your <strong><u>right index finger</u></strong> to release the <strong><u>V key</u></strong> if you see the letter <strong><u>I</u></strong> or lifting your <strong><u>right middle finger</u></strong> to release the <strong><u>B key</u></strong> if you see the letter <strong><u>M</u></strong> as fast as you can. It is important that you <strong><u>only use your right hand</u></strong> to do the task.</p><p><img src='keyboard_img.png'></p><p>While you complete this task, there will be a couple of hands moving in the background. Ignore them and focus on the task.</p><p>Press ENTER to continue.</p></div>","13","","","","","","","","","",""
"html-keyboard-response","7","109138","0.0-7.0","","29648.450000000143","<div class = 'my_window'><h1>Practice</h1><p>You will first do a practice phase. In the practice phase, you will get feedback on your performance. The practice phase contains 10 trials, but will add an extra trial every time you respond incorrectly.</p><p><p>Before each trial starts, please ensure that you keep the <strong><u>V key</u></strong> and <strong><u>B key</u></strong> depressed with your <strong><u>right index finger</u></strong> on the <strong><u>V key</u></strong> and your <strong><u>right middle finger</u></strong> on the <strong><u>B key</u></strong> (see image below). Responses on this experiment will consist of lifting your <strong><u>right index finger</u></strong> to release the <strong><u>V key</u></strong> if you see the letter <strong><u>I</u></strong> or lifting your <strong><u>right middle finger</u></strong> to release the <strong><u>B key</u></strong> if you see the letter <strong><u>M</u></strong> as fast as you can. It is important that you <strong><u>only use your right hand</u></strong> to do the task.</p><p><img src='keyboard_img.png'></p><p>While you complete this task, there will be a couple of hands moving in the background. Ignore them and focus on the task.</p><p>This is a reaction time experiment, so please try to respond as fast as possible while at the same time minimizing mistakes.</p><p>Press ENTER to begin.</p></div>","13","","","","","","","","","",""
"fixation-image-keyboard-release-original","1576","119169","0.0-8.0-1.0","","1238.649999999776","Stim/Stim-GB/MN_I.PNG","66","","","1","exp","400","2","0","IC","v","false"
"html-keyboard-response","1577","120274","0.0-8.0-2.0","","null","<p> INCORRECT </p>","null","","","","","","","","","",""
"fixation-image-keyboard-release-original","3106","133550","0.0-8.1-1.1","","4665.924999999785","Stim/Stim-BG/MM_I.PNG","86","","","2","exp","400","2","0","IC","v","true"
"html-keyboard-response","3107","134665","0.0-8.1-2.1","","null","<p> CORRECT </p>","null","","","","","","","","","",""
"fixation-image-keyboard-release-original","7365","157636","0.0-9.0-1.0","","798.7899999998335","Stim/Stim-GB/NM_M.PNG","66","","","1","exp","700","2","1","C","b","true"
"html-keyboard-response","7366","158745","0.0-9.0-2.0","","null","<p> CORRECT </p>","null","","","","","","","","","",""
"fixation-image-keyboard-release-original","7587","161509","0.0-10.0-1.0","","672.4750000002969","Stim/Stim-BG/II_I.PNG","86","","","2","exp","100","1","0","C","v","true"
"html-keyboard-response","7588","162633","0.0-10.0-2.0","","null","<p> CORRECT </p>","null","","","","","","","","","",""
"fixation-image-keyboard-release-original","7667","164536","0.0-11.0-1.0","","509.1250000000291","Stim/Stim-BG/MN_M.PNG","66","","","1","exp","100","2","1","C","b","true"
"html-keyboard-response","7668","165648","0.0-11.0-2.0","","null","<p> CORRECT </p>","null","","","","","","","","","",""
"fixation-image-keyboard-release-original","7883","168343","0.0-12.0-1.0","","632.3699999998207","Stim/Stim-GB/MM_M.PNG","66","","","2","exp","700","2","1","C","b","true"
"html-keyboard-response","7884","169447","0.0-12.0-2.0","","null","<p> CORRECT </p>","null","","","","","","","","","",""
"fixation-image-keyboard-release-original","7980","171264","0.0-13.0-1.0","","334.6449999999022","Stim/Stim-BG/II_I.PNG","86","","","2","exp","400","1","0","C","v","true"
"html-keyboard-response","7981","172367","0.0-13.0-2.0","","null","<p> CORRECT </p>","null","","","","","","","","","",""
"fixation-image-keyboard-release-original","8063","174245","0.0-14.0-1.0","","471.05999999985215","Stim/Stim-GB/MM_I.PNG","86","","","2","exp","400","2","0","IC","v","true"
"html-keyboard-response","8064","175352","0.0-14.0-2.0","","null","<p> CORRECT </p>","null","","","","","","","","","",""
"fixation-image-keyboard-release-original","8126","176969","0.0-15.0-1.0","","305.7999999996391","Stim/Stim-GB/II_I.PNG","86","","","2","exp","400","1","0","C","v","true"
"html-keyboard-response","8127","178086","0.0-15.0-2.0","","null","<p> CORRECT </p>","null","","","","","","","","","",""
"fixation-image-keyboard-release-original","8715","182439","0.0-16.0-1.0","","432.9100000000035","Stim/Stim-GB/MM_I.PNG","86","","","2","exp","400","2","0","IC","v","true"
"html-keyboard-response","8716","183569","0.0-16.0-2.0","","null","<p> CORRECT </p>","null","","","","","","","","","",""
"fixation-image-keyboard-release-original","8717","185373","0.0-17.0-1.0","","801.2599999997183","Stim/Stim-BG/NM_I.PNG","86","","","1","exp","100","2","0","IC","v","true"
"html-keyboard-response","8718","186487","0.0-17.0-2.0","","null","<p> CORRECT </p>","null","","","","","","","","","",""
"call-function","8719","186487","0.0-18.0","","","","","","","","","","","","","",""
"survey-html-form","8720","193610","0.0-19.0","","7120.690000000206","","","{""hands"":""Right""}","","","","","","","","",""
"html-keyboard-response","8721","200588","0.0-20.0","","6976.845000000147","If you are using <strong><u>just</u></strong> your <strong></u>right hand</u></strong>, then good job! If not, please do so in the main part of the experiment.<br><br>Press Enter to continue","13","","","","","","","","","",""
"html-keyboard-response","8722","212624","0.0-21.0","","12035.095000000176","<div class = 'my_window'><h1>Main Trials</h1><p>Good Job! We will now begin the main trials. In the main trials, you will <strong>not</strong> get feedback. There are 192 trials overall. You will get a self-paced break every 48 trials.</p><p>Instructions Reminder: <p>Before each trial starts, please ensure that you keep the <strong><u>V key</u></strong> and <strong><u>B key</u></strong> depressed with your <strong><u>right index finger</u></strong> on the <strong><u>V key</u></strong> and your <strong><u>right middle finger</u></strong> on the <strong><u>B key</u></strong> (see image below). Responses on this experiment will consist of lifting your <strong><u>right index finger</u></strong> to release the <strong><u>V key</u></strong> if you see the letter <strong><u>I</u></strong> or lifting your <strong><u>right middle finger</u></strong> to release the <strong><u>B key</u></strong> if you see the letter <strong><u>M</u></strong> as fast as you can. It is important that you <strong><u>only use your right hand</u></strong> to do the task.</p><p><img src='keyboard_img.png'></p><p>While you complete this task, there will be a couple of hands moving in the background. Ignore them and focus on the task.</p><p>Remember: this is a reaction time experiment, so please try to respond as fast as possible while at the same time minimizing mistakes.</p><p>Press ENTER to begin.</p></div>","13","","","","","","","","","",""
"call-function","8723","212624","0.0-22.0","","","","","","","","","","","","","",""
"fixation-image-keyboard-release-original","9192","216374","0.0-23.0-1.0","","426.7249999998021","Stim/Stim-GB/II_I.PNG","86","","","2","exp","700","1","0","C","v","true"
"fixation-image-keyboard-release-original","9193","218901","0.0-23.0-1.1","","515.445000000007","Stim/Stim-BG/II_M.PNG","66","","","2","exp","100","1","1","IC","b","true"
"fixation-image-keyboard-release-original","9194","221328","0.0-23.0-1.2","","409.8100000001141","Stim/Stim-BG/II_M.PNG","66","","","2","exp","100","1","1","IC","b","true"
"fixation-image-keyboard-release-original","9195","223731","0.0-23.0-1.3","","378.26499999981024","Stim/Stim-GB/NM_I.PNG","86","","","1","exp","700","2","0","IC","v","true"
"fixation-image-keyboard-release-original","9196","226296","0.0-23.0-1.4","","539.7099999995553","Stim/Stim-BG/II_M.PNG","66","","","2","exp","700","1","1","IC","b","true"
"fixation-image-keyboard-release-original","9197","228705","0.0-23.0-1.5","","384.46999999997206","Stim/Stim-BG/MM_M.PNG","66","","","2","exp","100","2","1","C","b","true"
"fixation-image-keyboard-release-original","9198","231167","0.0-23.0-1.6","","455.13500000015483","Stim/Stim-BG/IN_M.PNG","66","","","1","exp","100","1","1","IC","b","true"
"fixation-image-keyboard-release-original","9199","233610","0.0-23.0-1.7","","428.44000000011874","Stim/Stim-GB/MM_M.PNG","66","","","2","exp","400","2","1","C","b","true"
"fixation-image-keyboard-release-original","9200","236031","0.0-23.0-1.8","","402.9250000003376","Stim/Stim-GB/IN_I.PNG","86","","","1","exp","700","1","0","C","v","true"
"fixation-image-keyboard-release-original","9201","238516","0.0-23.0-1.9","","475.31500000014785","Stim/Stim-BG/MN_M.PNG","66","","","1","exp","400","2","1","C","b","true"
"fixation-image-keyboard-release-original","9202","240949","0.0-23.0-1.10","","410.02000000025146","Stim/Stim-GB/II_M.PNG","66","","","2","exp","100","1","1","IC","b","true"
"fixation-image-keyboard-release-original","9203","243474","0.0-23.0-1.11","","512.4049999999406","Stim/Stim-BG/NM_I.PNG","86","","","1","exp","700","2","0","IC","v","true"
"fixation-image-keyboard-release-original","9204","245966","0.0-23.0-1.12","","473.2799999997078","Stim/Stim-GB/II_I.PNG","86","","","2","exp","100","1","0","C","v","true"
"fixation-image-keyboard-release-original","9205","248301","0.0-23.0-1.13","","320.7200000001758","Stim/Stim-GB/MN_M.PNG","66","","","1","exp","700","2","1","C","b","true"
"fixation-image-keyboard-release-original","9206","250829","0.0-23.0-1.14","","508.9849999999569","Stim/Stim-BG/MM_I.PNG","86","","","2","exp","400","2","0","IC","v","true"
"fixation-image-keyboard-release-original","9207","253249","0.0-23.0-1.15","","413.3400000000547","Stim/Stim-GB/IN_I.PNG","86","","","1","exp","700","1","0","C","v","true"
"fixation-image-keyboard-release-original","9208","255685","0.0-23.0-1.16","","427.4049999999115","Stim/Stim-GB/MM_M.PNG","66","","","2","exp","400","2","1","C","b","true"
"fixation-image-keyboard-release-original","9209","258147","0.0-23.0-1.17","","451.1250000000582","Stim/Stim-BG/IN_I.PNG","86","","","1","exp","700","1","0","C","v","true"
"fixation-image-keyboard-release-original","9210","260646","0.0-23.0-1.18","","481.2900000002119","Stim/Stim-GB/II_I.PNG","86","","","2","exp","400","1","0","C","v","true"
"fixation-image-keyboard-release-original","9211","263136","0.0-23.0-1.19","","470.9100000000326","Stim/Stim-BG/IN_M.PNG","66","","","1","exp","400","1","1","IC","b","true"
"fixation-image-keyboard-release-original","9212","265503","0.0-23.0-1.20","","352.804999999993","Stim/Stim-GB/MN_M.PNG","66","","","1","exp","400","2","1","C","b","true"
"fixation-image-keyboard-release-original","9213","267891","0.0-23.0-1.21","","368.0999999997439","Stim/Stim-GB/II_I.PNG","86","","","2","exp","700","1","0","C","v","true"
"fixation-image-keyboard-release-original","9214","270220","0.0-23.0-1.22","","304.4149999996298","Stim/Stim-GB/II_M.PNG","66","","","2","exp","100","1","1","IC","b","true"
"fixation-image-keyboard-release-original","9215","272591","0.0-23.0-1.23","","349.64999999961583","Stim/Stim-GB/II_M.PNG","66","","","2","exp","700","1","1","IC","b","true"
"fixation-image-keyboard-release-original","9216","275064","0.0-23.0-1.24","","449.7249999999185","Stim/Stim-BG/IN_M.PNG","66","","","1","exp","700","1","1","IC","b","true"
"fixation-image-keyboard-release-original","9217","277510","0.0-23.0-1.25","","424.41499999997905","Stim/Stim-GB/MM_M.PNG","66","","","2","exp","700","2","1","C","b","true"
"fixation-image-keyboard-release-original","9218","279873","0.0-23.0-1.26","","346.9199999999255","Stim/Stim-GB/NM_M.PNG","66","","","1","exp","700","2","1","C","b","true"
"fixation-image-keyboard-release-original","9219","282222","0.0-23.0-1.27","","336.3650000001071","Stim/Stim-GB/II_I.PNG","86","","","2","exp","400","1","0","C","v","true"
"fixation-image-keyboard-release-original","9220","284576","0.0-23.0-1.28","","346.75500000000466","Stim/Stim-BG/MM_M.PNG","66","","","2","exp","100","2","1","C","b","true"
"fixation-image-keyboard-release-original","9221","286911","0.0-23.0-1.29","","310.74000000033993","Stim/Stim-BG/MM_M.PNG","66","","","2","exp","400","2","1","C","b","true"
"fixation-image-keyboard-release-original","9222","289395","0.0-23.0-1.30","","465.9550000001327","Stim/Stim-GB/II_I.PNG","86","","","2","exp","400","1","0","C","v","true"
"fixation-image-keyboard-release-original","9223","291801","0.0-23.0-1.31","","387.70499999966705","Stim/Stim-GB/MM_M.PNG","66","","","2","exp","400","2","1","C","b","true"
"fixation-image-keyboard-release-original","9224","294172","0.0-23.0-1.32","","352.01499999989755","Stim/Stim-BG/MM_M.PNG","66","","","2","exp","700","2","1","C","b","true"
"fixation-image-keyboard-release-original","9225","296572","0.0-23.0-1.33","","390.54500000021653","Stim/Stim-BG/MM_M.PNG","66","","","2","exp","700","2","1","C","b","true"
"fixation-image-keyboard-release-original","9226","298934","0.0-23.0-1.34","","331.6850000001141","Stim/Stim-GB/IN_M.PNG","66","","","1","exp","100","1","1","IC","b","true"
"fixation-image-keyboard-release-original","9227","301288","0.0-23.0-1.35","","339.0899999999674","Stim/Stim-BG/NI_M.PNG","66","","","1","exp","400","1","1","IC","b","true"
"fixation-image-keyboard-release-original","9228","303832","0.0-23.0-1.36","","527.3799999999464","Stim/Stim-BG/NI_I.PNG","86","","","1","exp","700","1","0","C","v","true"
"fixation-image-keyboard-release-original","9229","306298","0.0-23.0-1.37","","447.09500000003027","Stim/Stim-GB/NM_M.PNG","66","","","1","exp","400","2","1","C","b","true"
"fixation-image-keyboard-release-original","9230","308656","0.0-23.0-1.38","","335.76000000035856","Stim/Stim-GB/MN_I.PNG","86","","","1","exp","700","2","0","IC","v","true"
"fixation-image-keyboard-release-original","9231","311190","0.0-23.0-1.39","","509.95999999990454","Stim/Stim-GB/IN_M.PNG","66","","","1","exp","400","1","1","IC","b","true"
"fixation-image-keyboard-release-original","9232","313696","0.0-23.0-1.40","","498.86000000016065","Stim/Stim-BG/MM_I.PNG","86","","","2","exp","400","2","0","IC","v","true"
"fixation-image-keyboard-release-original","9233","316056","0.0-23.0-1.41","","329.3800000001211","Stim/Stim-GB/II_M.PNG","66","","","2","exp","400","1","1","IC","b","true"
"fixation-image-keyboard-release-original","9234","318434","0.0-23.0-1.42","","362.64500000013504","Stim/Stim-BG/MN_M.PNG","66","","","1","exp","700","2","1","C","b","true"
"fixation-image-keyboard-release-original","9235","320931","0.0-23.0-1.43","","469.98500000016065","Stim/Stim-BG/NM_I.PNG","86","","","1","exp","400","2","0","IC","v","true"
"fixation-image-keyboard-release-original","9236","323385","0.0-23.0-1.44","","436.6400000003632","Stim/Stim-GB/IN_M.PNG","66","","","1","exp","100","1","1","IC","b","true"
"fixation-image-keyboard-release-original","9237","325831","0.0-23.0-1.45","","430.13999999995576","Stim/Stim-BG/MM_I.PNG","86","","","2","exp","700","2","0","IC","v","true"
"fixation-image-keyboard-release-original","9238","328125","0.0-23.0-1.46","","274.4649999999092","Stim/Stim-GB/MM_M.PNG","66","","","2","exp","100","2","1","C","b","true"
"fixation-image-keyboard-release-original","9239","330551","0.0-23.0-1.47","","416.2949999999837","Stim/Stim-GB/MM_I.PNG","66","","","2","exp","400","2","0","IC","v","false"
"html-keyboard-response","9240","345428","0.0-23.0-2.47-0.47","","13872.390000000014","Take a break. Feel free to start again by pressing Enter.","13","","","","","","","","","",""
"fixation-image-keyboard-release-original","9241","346930","0.0-23.0-1.48","","496.3750000001746","Stim/Stim-BG/II_M.PNG","66","","","2","exp","700","1","1","IC","b","true"
"fixation-image-keyboard-release-original","9242","349352","0.0-23.0-1.49","","404.97500000038417","Stim/Stim-GB/MN_M.PNG","66","","","1","exp","100","2","1","C","b","true"
"fixation-image-keyboard-release-original","9243","351901","0.0-23.0-1.50","","517.9849999999278","Stim/Stim-GB/MM_I.PNG","86","","","2","exp","400","2","0","IC","v","true"
"fixation-image-keyboard-release-original","9244","354387","0.0-23.0-1.51","","456.73500000016065","Stim/Stim-BG/MN_I.PNG","86","","","1","exp","700","2","0","IC","v","true"
"fixation-image-keyboard-release-original","9245","356787","0.0-23.0-1.52","","386.5350000000908","Stim/Stim-GB/MM_M.PNG","66","","","2","exp","700","2","1","C","b","true"
"fixation-image-keyboard-release-original","9246","359325","0.0-23.0-1.53","","505.6850000000559","Stim/Stim-GB/MM_I.PNG","86","","","2","exp","100","2","0","IC","v","true"
"fixation-image-keyboard-release-original","9247","361797","0.0-23.0-1.54","","458.51499999983935","Stim/Stim-BG/IN_M.PNG","66","","","1","exp","400","1","1","IC","b","true"
"fixation-image-keyboard-release-original","9248","364333","0.0-23.0-1.55","","528.0199999997276","Stim/Stim-BG/NI_I.PNG","86","","","1","exp","400","1","0","C","v","true"
"fixation-image-keyboard-release-original","9249","366705","0.0-23.0-1.56","","353.859999999695","Stim/Stim-BG/NM_I.PNG","86","","","1","exp","100","2","0","IC","v","true"
"fixation-image-keyboard-release-original","9250","369108","0.0-23.0-1.57","","381.1599999999162","Stim/Stim-GB/II_I.PNG","86","","","2","exp","700","1","0","C","v","true"
"fixation-image-keyboard-release-original","9251","371464","0.0-23.0-1.58","","329.69499999989057","Stim/Stim-BG/MN_M.PNG","66","","","1","exp","700","2","1","C","b","true"
"fixation-image-keyboard-release-original","9252","373813","0.0-23.0-1.59","","333.9200000000419","Stim/Stim-BG/II_M.PNG","66","","","2","exp","700","1","1","IC","b","true"
"fixation-image-keyboard-release-original","9253","376334","0.0-23.0-1.60","","510.2149999997346","Stim/Stim-BG/MM_I.PNG","86","","","2","exp","400","2","0","IC","v","true"
"fixation-image-keyboard-release-original","9254","378719","0.0-23.0-1.61","","370.01499999995576","Stim/Stim-BG/II_I.PNG","86","","","2","exp","700","1","0","C","v","true"
"fixation-image-keyboard-release-original","9255","381116","0.0-23.0-1.62","","375.30999999988126","Stim/Stim-BG/NI_M.PNG","66","","","1","exp","100","1","1","IC","b","true"
"fixation-image-keyboard-release-original","9256","383524","0.0-23.0-1.63","","390.5900000000256","Stim/Stim-BG/NI_I.PNG","86","","","1","exp","700","1","0","C","v","true"
"fixation-image-keyboard-release-original","9257","385942","0.0-23.0-1.64","","403.2300000003306","Stim/Stim-BG/II_I.PNG","86","","","2","exp","700","1","0","C","v","true"
"fixation-image-keyboard-release-original","9258","388375","0.0-23.0-1.65","","412.4999999998836","Stim/Stim-GB/NM_M.PNG","66","","","1","exp","400","2","1","C","b","true"
"fixation-image-keyboard-release-original","9259","390860","0.0-23.0-1.66","","475.91499999997905","Stim/Stim-GB/NI_I.PNG","86","","","1","exp","700","1","0","C","v","true"
"fixation-image-keyboard-release-original","9260","393313","0.0-23.0-1.67","","443.7050000001327","Stim/Stim-BG/MN_M.PNG","66","","","1","exp","100","2","1","C","b","true"
"fixation-image-keyboard-release-original","9261","395692","0.0-23.0-1.68","","369.5250000000815","Stim/Stim-GB/IN_M.PNG","66","","","1","exp","700","1","1","IC","b","true"
"fixation-image-keyboard-release-original","9262","398136","0.0-23.0-1.69","","421.6649999998044","Stim/Stim-GB/NI_M.PNG","66","","","1","exp","100","1","1","IC","b","true"
"fixation-image-keyboard-release-original","9263","400474","0.0-23.0-1.70","","323.1150000001071","Stim/Stim-BG/NI_M.PNG","66","","","1","exp","700","1","1","IC","b","true"
"fixation-image-keyboard-release-original","9264","403037","0.0-23.0-1.71","","544.3200000004144","Stim/Stim-BG/MM_I.PNG","86","","","2","exp","700","2","0","IC","v","true"
"fixation-image-keyboard-release-original","9265","405508","0.0-23.0-1.72","","467.5649999999441","Stim/Stim-GB/II_M.PNG","66","","","2","exp","100","1","1","IC","b","true"
"fixation-image-keyboard-release-original","9266","407986","0.0-23.0-1.73","","467.6550000003772","Stim/Stim-BG/IN_M.PNG","66","","","1","exp","100","1","1","IC","b","true"
"fixation-image-keyboard-release-original","9267","410349","0.0-23.0-1.74","","339.33500000007916","Stim/Stim-GB/II_M.PNG","66","","","2","exp","400","1","1","IC","b","true"
"fixation-image-keyboard-release-original","9268","412819","0.0-23.0-1.75","","465.6300000001211","Stim/Stim-BG/MM_I.PNG","86","","","2","exp","400","2","0","IC","v","true"
"fixation-image-keyboard-release-original","9269","415250","0.0-23.0-1.76","","427.75000000029104","Stim/Stim-BG/II_I.PNG","86","","","2","exp","700","1","0","C","v","true"
"fixation-image-keyboard-release-original","9270","417767","0.0-23.0-1.77","","493.44000000023516","Stim/Stim-GB/NI_I.PNG","86","","","1","exp","100","1","0","C","v","true"
"fixation-image-keyboard-release-original","9271","420627","0.0-23.0-1.78","","837.4699999999139","Stim/Stim-GB/II_I.PNG","86","","","2","exp","400","1","0","C","v","true"
"fixation-image-keyboard-release-original","9272","423110","0.0-23.0-1.79","","475.63500000024214","Stim/Stim-BG/II_I.PNG","86","","","2","exp","400","1","0","C","v","true"
"fixation-image-keyboard-release-original","9273","425606","0.0-23.0-1.80","","485.7050000000745","Stim/Stim-GB/II_I.PNG","86","","","2","exp","700","1","0","C","v","true"
"fixation-image-keyboard-release-original","9274","428087","0.0-23.0-1.81","","452.29999999993015","Stim/Stim-GB/II_I.PNG","86","","","2","exp","100","1","0","C","v","true"
"fixation-image-keyboard-release-original","9275","430452","0.0-23.0-1.82","","334.0100000000093","Stim/Stim-GB/NI_M.PNG","66","","","1","exp","700","1","1","IC","b","true"
"fixation-image-keyboard-release-original","9276","432928","0.0-23.0-1.83","","451.3200000001234","Stim/Stim-BG/NI_M.PNG","66","","","1","exp","400","1","1","IC","b","true"
"fixation-image-keyboard-release-original","9277","435300","0.0-23.0-1.84","","354.929999999993","Stim/Stim-GB/MM_M.PNG","66","","","2","exp","700","2","1","C","b","true"
"fixation-image-keyboard-release-original","9278","437737","0.0-23.0-1.85","","416.19499999983236","Stim/Stim-BG/II_M.PNG","66","","","2","exp","100","1","1","IC","b","true"
"fixation-image-keyboard-release-original","9279","440166","0.0-23.0-1.86","","421.6050000000396","Stim/Stim-GB/MM_M.PNG","66","","","2","exp","100","2","1","C","b","true"
"fixation-image-keyboard-release-original","9280","442585","0.0-23.0-1.87","","405.0949999995646","Stim/Stim-GB/II_M.PNG","66","","","2","exp","700","1","1","IC","b","true"
"fixation-image-keyboard-release-original","9281","445115","0.0-23.0-1.88","","525.585000000312","Stim/Stim-BG/II_I.PNG","86","","","2","exp","100","1","0","C","v","true"
"fixation-image-keyboard-release-original","9282","447583","0.0-23.0-1.89","","461.37500000034925","Stim/Stim-BG/NM_M.PNG","66","","","1","exp","700","2","1","C","b","true"
"fixation-image-keyboard-release-original","9283","450058","0.0-23.0-1.90","","455.9450000001816","Stim/Stim-BG/MN_I.PNG","86","","","1","exp","100","2","0","IC","v","true"
"fixation-image-keyboard-release-original","9284","452511","0.0-23.0-1.91","","438.45999999984633","Stim/Stim-GB/IN_I.PNG","86","","","1","exp","100","1","0","C","v","true"
"fixation-image-keyboard-release-original","9285","454938","0.0-23.0-1.92","","413.93000000016764","Stim/Stim-BG/MN_I.PNG","86","","","1","exp","400","2","0","IC","v","true"
"fixation-image-keyboard-release-original","9286","457346","0.0-23.0-1.93","","397.62000000016997","Stim/Stim-GB/NI_M.PNG","66","","","1","exp","400","1","1","IC","b","true"
"fixation-image-keyboard-release-original","9287","459816","0.0-23.0-1.94","","448.90500000020256","Stim/Stim-GB/II_M.PNG","66","","","2","exp","100","1","1","IC","b","true"
"fixation-image-keyboard-release-original","9288","462229","0.0-23.0-1.95","","407.94000000006054","Stim/Stim-BG/IN_I.PNG","86","","","1","exp","100","1","0","C","v","true"
"html-keyboard-response","9289","475036","0.0-23.0-2.95-0.95","","11806.085000000196","Take a break. Feel free to start again by pressing Enter.","13","","","","","","","","","",""
"fixation-image-keyboard-release-original","9290","476557","0.0-23.0-1.96","","516.8899999998976","Stim/Stim-GB/MN_I.PNG","86","","","1","exp","100","2","0","IC","v","true"
"fixation-image-keyboard-release-original","9291","479033","0.0-23.0-1.97","","461.47999999992317","Stim/Stim-BG/NM_I.PNG","86","","","1","exp","700","2","0","IC","v","true"
"fixation-image-keyboard-release-original","9292","481485","0.0-23.0-1.98","","445.3850000000093","Stim/Stim-BG/NI_I.PNG","86","","","1","exp","400","1","0","C","v","true"
"fixation-image-keyboard-release-original","9293","483979","0.0-23.0-1.99","","483.92499999998836","Stim/Stim-BG/II_I.PNG","86","","","2","exp","100","1","0","C","v","true"
"fixation-image-keyboard-release-original","9294","486372","0.0-23.0-1.100","","365.35499999986496","Stim/Stim-GB/NM_I.PNG","86","","","1","exp","100","2","0","IC","v","true"
"fixation-image-keyboard-release-original","9295","488917","0.0-23.0-1.101","","522.7700000000186","Stim/Stim-GB/IN_I.PNG","86","","","1","exp","400","1","0","C","v","true"
"fixation-image-keyboard-release-original","9296","491369","0.0-23.0-1.102","","435.48499999998603","Stim/Stim-BG/MM_I.PNG","86","","","2","exp","700","2","0","IC","v","true"
"fixation-image-keyboard-release-original","9297","493836","0.0-23.0-1.103","","451.11499999987427","Stim/Stim-GB/MM_I.PNG","86","","","2","exp","400","2","0","IC","v","true"
"fixation-image-keyboard-release-original","9298","496209","0.0-23.0-1.104","","356.69000000006054","Stim/Stim-GB/II_M.PNG","66","","","2","exp","700","1","1","IC","b","true"
"fixation-image-keyboard-release-original","9299","498655","0.0-23.0-1.105","","425.9799999999814","Stim/Stim-GB/IN_M.PNG","66","","","1","exp","400","1","1","IC","b","true"
"fixation-image-keyboard-release-original","9300","500978","0.0-23.0-1.106","","313.88999999989755","Stim/Stim-BG/MN_M.PNG","66","","","1","exp","400","2","1","C","b","true"
"fixation-image-keyboard-release-original","9301","503339","0.0-23.0-1.107","","346.06999999959953","Stim/Stim-BG/NM_M.PNG","66","","","1","exp","700","2","1","C","b","true"
"fixation-image-keyboard-release-original","9302","505689","0.0-23.0-1.108","","322.26499999978114","Stim/Stim-BG/II_M.PNG","66","","","2","exp","400","1","1","IC","b","true"
"fixation-image-keyboard-release-original","9303","508232","0.0-23.0-1.109","","534.2149999996764","Stim/Stim-BG/MM_I.PNG","86","","","2","exp","700","2","0","IC","v","true"
"fixation-image-keyboard-release-original","9304","510710","0.0-23.0-1.110","","452.2450000004028","Stim/Stim-BG/NI_M.PNG","66","","","1","exp","700","1","1","IC","b","true"
"fixation-image-keyboard-release-original","9305","513261","0.0-23.0-1.111","","534.6749999998719","Stim/Stim-GB/MM_I.PNG","86","","","2","exp","100","2","0","IC","v","true"
"fixation-image-keyboard-release-original","9306","515650","0.0-23.0-1.112","","375.7749999999651","Stim/Stim-GB/NM_I.PNG","86","","","1","exp","700","2","0","IC","v","true"
"fixation-image-keyboard-release-original","9307","518048","0.0-23.0-1.113","","383.91499999992084","Stim/Stim-GB/MM_I.PNG","86","","","2","exp","100","2","0","IC","v","true"
"fixation-image-keyboard-release-original","9308","520522","0.0-23.0-1.114","","452.38500000012573","Stim/Stim-GB/IN_M.PNG","66","","","1","exp","700","1","1","IC","b","true"
"fixation-image-keyboard-release-original","9309","523016","0.0-23.0-1.115","","475.84499999985565","Stim/Stim-BG/II_I.PNG","86","","","2","exp","100","1","0","C","v","true"
"fixation-image-keyboard-release-original","9310","525449","0.0-23.0-1.116","","424.4199999998091","Stim/Stim-BG/NM_M.PNG","66","","","1","exp","100","2","1","C","b","true"
"fixation-image-keyboard-release-original","9311","527910","0.0-23.0-1.117","","446.0049999997718","Stim/Stim-BG/MM_I.PNG","86","","","2","exp","100","2","0","IC","v","true"
"fixation-image-keyboard-release-original","9312","530328","0.0-23.0-1.118","","412.3199999999488","Stim/Stim-BG/MN_I.PNG","86","","","1","exp","100","2","0","IC","v","true"
"fixation-image-keyboard-release-original","9313","532679","0.0-23.0-1.119","","341.0400000002701","Stim/Stim-GB/II_M.PNG","66","","","2","exp","700","1","1","IC","b","true"
"fixation-image-keyboard-release-original","9314","535099","0.0-23.0-1.120","","404.44499999959953","Stim/Stim-BG/MM_M.PNG","66","","","2","exp","100","2","1","C","b","true"
"fixation-image-keyboard-release-original","9315","537450","0.0-23.0-1.121","","332.574999999837","Stim/Stim-GB/NM_M.PNG","66","","","1","exp","100","2","1","C","b","true"
"fixation-image-keyboard-release-original","9316","540032","0.0-23.0-1.122","","554.914999999688","Stim/Stim-BG/IN_I.PNG","86","","","1","exp","100","1","0","C","v","true"
"fixation-image-keyboard-release-original","9317","542481","0.0-23.0-1.123","","439.87000000011176","Stim/Stim-BG/MM_I.PNG","86","","","2","exp","100","2","0","IC","v","true"
"fixation-image-keyboard-release-original","9318","544966","0.0-23.0-1.124","","472.77499999979045","Stim/Stim-BG/II_M.PNG","66","","","2","exp","100","1","1","IC","b","true"
"fixation-image-keyboard-release-original","9319","547266","0.0-23.0-1.125","","287.0100000000093","Stim/Stim-GB/NI_M.PNG","66","","","1","exp","700","1","1","IC","b","true"
"fixation-image-keyboard-release-original","9320","549640","0.0-23.0-1.126","","363.24499999999534","Stim/Stim-BG/II_M.PNG","66","","","2","exp","400","1","1","IC","b","true"
"fixation-image-keyboard-release-original","9321","552003","0.0-23.0-1.127","","337.5200000000186","Stim/Stim-BG/NM_M.PNG","66","","","1","exp","100","2","1","C","b","true"
"fixation-image-keyboard-release-original","9322","554525","0.0-23.0-1.128","","501.84000000031665","Stim/Stim-BG/II_I.PNG","86","","","2","exp","400","1","0","C","v","true"
"fixation-image-keyboard-release-original","9323","557119","0.0-23.0-1.129","","563.5299999999115","Stim/Stim-BG/NM_I.PNG","86","","","1","exp","400","2","0","IC","v","true"
"fixation-image-keyboard-release-original","9324","559530","0.0-23.0-1.130","","395.35999999998603","Stim/Stim-BG/MN_M.PNG","66","","","1","exp","100","2","1","C","b","true"
"fixation-image-keyboard-release-original","9325","561927","0.0-23.0-1.131","","372.91499999992084","Stim/Stim-GB/MM_M.PNG","66","","","2","exp","700","2","1","C","b","true"
"fixation-image-keyboard-release-original","9326","564277","0.0-23.0-1.132","","343.3300000001909","Stim/Stim-GB/NM_M.PNG","66","","","1","exp","700","2","1","C","b","true"
"fixation-image-keyboard-release-original","9327","566727","0.0-23.0-1.133","","435.5150000001304","Stim/Stim-BG/NI_I.PNG","86","","","1","exp","100","1","0","C","v","true"
"fixation-image-keyboard-release-original","9328","569194","0.0-23.0-1.134","","451.0999999997439","Stim/Stim-BG/NM_I.PNG","86","","","1","exp","100","2","0","IC","v","true"
"fixation-image-keyboard-release-original","9329","571672","0.0-23.0-1.135","","461.58500000007916","Stim/Stim-BG/MM_M.PNG","66","","","2","exp","400","2","1","C","b","true"
"fixation-image-keyboard-release-original","9330","574180","0.0-23.0-1.136","","485.39500000013504","Stim/Stim-GB/NI_I.PNG","86","","","1","exp","100","1","0","C","v","true"
"fixation-image-keyboard-release-original","9331","576612","0.0-23.0-1.137","","429.04500000027474","Stim/Stim-BG/NI_I.PNG","86","","","1","exp","100","1","0","C","v","true"
"fixation-image-keyboard-release-original","9332","579046","0.0-23.0-1.138","","413.37499999965075","Stim/Stim-BG/NM_M.PNG","66","","","1","exp","400","2","1","C","b","true"
"fixation-image-keyboard-release-original","9333","581614","0.0-23.0-1.139","","542.8449999999721","Stim/Stim-BG/IN_M.PNG","66","","","1","exp","700","1","1","IC","b","true"
"fixation-image-keyboard-release-original","9334","583994","0.0-23.0-1.140","","375.6049999996321","Stim/Stim-GB/MM_I.PNG","86","","","2","exp","700","2","0","IC","v","true"
"fixation-image-keyboard-release-original","9335","586408","0.0-23.0-1.141","","398.13000000000466","Stim/Stim-GB/MN_M.PNG","66","","","1","exp","700","2","1","C","b","true"
"fixation-image-keyboard-release-original","9336","589143","0.0-23.0-1.142","","728.4450000001816","Stim/Stim-GB/MN_I.PNG","86","","","1","exp","700","2","0","IC","v","true"
"fixation-image-keyboard-release-original","9337","591695","0.0-23.0-1.143","","529.9399999998277","Stim/Stim-GB/MM_I.PNG","86","","","2","exp","400","2","0","IC","v","true"
"html-keyboard-response","9338","598795","0.0-23.0-2.143-0.143","","6099.909999999916","Take a break. Feel free to start again by pressing Enter.","13","","","","","","","","","",""
"fixation-image-keyboard-release-original","10037","603948","0.0-23.0-1.144","","689.6649999998044","Stim/Stim-BG/MN_I.PNG","86","","","1","exp","700","2","0","IC","v","true"
"fixation-image-keyboard-release-original","10038","606339","0.0-23.0-1.145","","380.3699999998789","Stim/Stim-BG/II_M.PNG","66","","","2","exp","400","1","1","IC","b","true"
"fixation-image-keyboard-release-original","10039","608682","0.0-23.0-1.146","","315.6350000000093","Stim/Stim-GB/MM_M.PNG","66","","","2","exp","100","2","1","C","b","true"
"fixation-image-keyboard-release-original","10040","611203","0.0-23.0-1.147","","506.8700000002282","Stim/Stim-GB/II_I.PNG","86","","","2","exp","100","1","0","C","v","true"
"fixation-image-keyboard-release-original","10041","613626","0.0-23.0-1.148","","408.65500000014435","Stim/Stim-BG/NM_M.PNG","66","","","1","exp","400","2","1","C","b","true"
"fixation-image-keyboard-release-original","10042","615962","0.0-23.0-1.149","","325.84499999985565","Stim/Stim-BG/MM_M.PNG","66","","","2","exp","700","2","1","C","b","true"
"fixation-image-keyboard-release-original","10043","618301","0.0-23.0-1.150","","308.39999999990687","Stim/Stim-BG/MM_M.PNG","66","","","2","exp","700","2","1","C","b","true"
"fixation-image-keyboard-release-original","10044","620597","0.0-23.0-1.151","","275.5949999996228","Stim/Stim-GB/NM_M.PNG","66","","","1","exp","100","2","1","C","b","true"
"fixation-image-keyboard-release-original","10045","622895","0.0-23.0-1.152","","289.68499999970663","Stim/Stim-BG/MM_M.PNG","66","","","2","exp","100","2","1","C","b","true"
"fixation-image-keyboard-release-original","10046","625453","0.0-23.0-1.153","","538.9100000002654","Stim/Stim-BG/II_I.PNG","86","","","2","exp","400","1","0","C","v","true"
"fixation-image-keyboard-release-original","10047","628173","0.0-23.0-1.154","","707.7049999997253","Stim/Stim-GB/NM_I.PNG","86","","","1","exp","400","2","0","IC","v","true"
"fixation-image-keyboard-release-original","10048","630672","0.0-23.0-1.155","","489.9350000000559","Stim/Stim-BG/MM_I.PNG","86","","","2","exp","100","2","0","IC","v","true"
"fixation-image-keyboard-release-original","10049","633144","0.0-23.0-1.156","","450.55000000004657","Stim/Stim-BG/MN_I.PNG","86","","","1","exp","400","2","0","IC","v","true"
"fixation-image-keyboard-release-original","10050","635497","0.0-23.0-1.157","","347.17499999993015","Stim/Stim-GB/MM_M.PNG","86","","","2","exp","100","2","1","C","b","false"
"fixation-image-keyboard-release-original","10051","638003","0.0-23.0-1.158","","483.42499999993015","Stim/Stim-GB/MN_I.PNG","86","","","1","exp","100","2","0","IC","v","true"
"fixation-image-keyboard-release-original","10052","640499","0.0-23.0-1.159","","475.1799999999348","Stim/Stim-BG/II_M.PNG","66","","","2","exp","700","1","1","IC","b","true"
"fixation-image-keyboard-release-original","10053","642974","0.0-23.0-1.160","","465.67499999993015","Stim/Stim-BG/II_I.PNG","86","","","2","exp","700","1","0","C","v","true"
"fixation-image-keyboard-release-original","10054","645338","0.0-23.0-1.161","","346.3700000002282","Stim/Stim-GB/IN_I.PNG","86","","","1","exp","400","1","0","C","v","true"
"fixation-image-keyboard-release-original","10055","647803","0.0-23.0-1.162","","452.4550000000745","Stim/Stim-GB/MN_M.PNG","66","","","1","exp","100","2","1","C","b","true"
"fixation-image-keyboard-release-original","10056","650250","0.0-23.0-1.163","","430.2299999999814","Stim/Stim-GB/MN_I.PNG","86","","","1","exp","400","2","0","IC","v","true"
"fixation-image-keyboard-release-original","10057","652694","0.0-23.0-1.164","","421.6949999999488","Stim/Stim-GB/MM_I.PNG","86","","","2","exp","700","2","0","IC","v","true"
"fixation-image-keyboard-release-original","10058","655162","0.0-23.0-1.165","","451.37499999965075","Stim/Stim-GB/NM_I.PNG","86","","","1","exp","100","2","0","IC","v","true"
"fixation-image-keyboard-release-original","10059","657593","0.0-23.0-1.166","","428.2699999999022","Stim/Stim-BG/II_I.PNG","86","","","2","exp","100","1","0","C","v","true"
"fixation-image-keyboard-release-original","10060","660090","0.0-23.0-1.167","","480.3299999999581","Stim/Stim-BG/MM_I.PNG","86","","","2","exp","100","2","0","IC","v","true"
"fixation-image-keyboard-release-original","10061","662533","0.0-23.0-1.168","","415.9549999999581","Stim/Stim-GB/MM_I.PNG","86","","","2","exp","700","2","0","IC","v","true"
"fixation-image-keyboard-release-original","10062","665284","0.0-23.0-1.169","","729.6199999996461","Stim/Stim-GB/NI_M.PNG","66","","","1","exp","100","1","1","IC","b","true"
"fixation-image-keyboard-release-original","10063","667791","0.0-23.0-1.170","","486.910000000149","Stim/Stim-BG/IN_I.PNG","86","","","1","exp","400","1","0","C","v","true"
"fixation-image-keyboard-release-original","10064","670257","0.0-23.0-1.171","","453.5500000002794","Stim/Stim-GB/NM_I.PNG","86","","","1","exp","400","2","0","IC","v","true"
"fixation-image-keyboard-release-original","10065","672807","0.0-23.0-1.172","","519.2650000003632","Stim/Stim-BG/II_M.PNG","66","","","2","exp","400","1","1","IC","b","true"
"fixation-image-keyboard-release-original","10066","675336","0.0-23.0-1.173","","506.10000000009313","Stim/Stim-GB/MN_I.PNG","86","","","1","exp","400","2","0","IC","v","true"
"fixation-image-keyboard-release-original","10067","677783","0.0-23.0-1.174","","430.80999999982305","Stim/Stim-BG/NI_M.PNG","66","","","1","exp","100","1","1","IC","b","true"
"fixation-image-keyboard-release-original","10068","680257","0.0-23.0-1.175","","452.1199999998789","Stim/Stim-BG/IN_I.PNG","86","","","1","exp","400","1","0","C","v","true"
"fixation-image-keyboard-release-original","10069","682673","0.0-23.0-1.176","","399.8050000000512","Stim/Stim-GB/MN_M.PNG","86","","","1","exp","400","2","1","C","b","false"
"fixation-image-keyboard-release-original","10070","685047","0.0-23.0-1.177","","352.26500000001397","Stim/Stim-GB/IN_I.PNG","86","","","1","exp","100","1","0","C","v","true"
"fixation-image-keyboard-release-original","10071","687379","0.0-23.0-1.178","","320.53000000002794","Stim/Stim-GB/NI_M.PNG","66","","","1","exp","400","1","1","IC","b","true"
"fixation-image-keyboard-release-original","10072","689739","0.0-23.0-1.179","","340.55999999970663","Stim/Stim-BG/MM_M.PNG","66","","","2","exp","400","2","1","C","b","true"
"fixation-image-keyboard-release-original","10073","692083","0.0-23.0-1.180","","325.0250000001397","Stim/Stim-GB/MM_M.PNG","66","","","2","exp","400","2","1","C","b","true"
"fixation-image-keyboard-release-original","10074","694761","0.0-23.0-1.181","","660.1900000000605","Stim/Stim-GB/II_I.PNG","86","","","2","exp","100","1","0","C","v","true"
"fixation-image-keyboard-release-original","10075","697412","0.0-23.0-1.182","","624.4050000000279","Stim/Stim-GB/NI_I.PNG","86","","","1","exp","400","1","0","C","v","true"
"fixation-image-keyboard-release-original","10076","699803","0.0-23.0-1.183","","387.5199999996694","Stim/Stim-BG/IN_I.PNG","86","","","1","exp","700","1","0","C","v","true"
"fixation-image-keyboard-release-original","10077","702184","0.0-23.0-1.184","","365.0050000001211","Stim/Stim-BG/II_I.PNG","86","","","2","exp","400","1","0","C","v","true"
"fixation-image-keyboard-release-original","10078","704518","0.0-23.0-1.185","","316.4299999998184","Stim/Stim-GB/II_M.PNG","66","","","2","exp","400","1","1","IC","b","true"
"fixation-image-keyboard-release-original","10079","707244","0.0-23.0-1.186","","719.535000000149","Stim/Stim-GB/NI_I.PNG","86","","","1","exp","400","1","0","C","v","true"
"fixation-image-keyboard-release-original","10080","709654","0.0-23.0-1.187","","394.6850000001723","Stim/Stim-BG/MM_M.PNG","66","","","2","exp","400","2","1","C","b","true"
"fixation-image-keyboard-release-original","10081","712224","0.0-23.0-1.188","","558.9899999999907","Stim/Stim-GB/MM_I.PNG","86","","","2","exp","700","2","0","IC","v","true"
"fixation-image-keyboard-release-original","10082","714698","0.0-23.0-1.189","","456.03000000026077","Stim/Stim-GB/MM_I.PNG","86","","","2","exp","100","2","0","IC","v","true"
"fixation-image-keyboard-release-original","10083","717187","0.0-23.0-1.190","","460.60499999974854","Stim/Stim-GB/NI_I.PNG","86","","","1","exp","700","1","0","C","v","true"
"fixation-image-keyboard-release-original","10084","719647","0.0-23.0-1.191","","440.27000000013504","Stim/Stim-GB/II_M.PNG","66","","","2","exp","400","1","1","IC","b","true"
"call-function","10085","720649","0.0-24.0","","","","","","","","","","","","","",""
"survey-html-form","10086","730585","0.0-25.0","","9933.195000000065","","","{""hands2"":""Right""}","","","","","","","","",""
"html-keyboard-response","10087","739239","0.0-26.0","","8653.52500000014","<p><h1>This is the end of the experiment.</h1></p><p>Please <a href='Debrief.pdf' target='_blank'>Click Here</a> (this will open a new window) to read more about the study.</p><p>Press ENTER to end the experiment (you will be sent to Prolific - if something goes wrong, the completion code for this study is: 3F11CBBF).</p>","13","","","","","","","","","",""
"pavlovia","10088","739245","0.0-27.0","","","","","","","","","","","","","",""
