"trial_type","trial_index","time_elapsed","internal_node_id","value","rt","stimulus","key_press","responses","success","hand","test","gap","finger","cue","con","correct_response","correct"
"pavlovia","0","3","0.0-0.0","","","","","","","","","","","","","",""
"call-function","1","3","0.0-1.0","","","","","","","","","","","","","",""
"html-keyboard-response","2","13484","0.0-2.0","","13479.63499999969","<div class = 'my_window'><p><h1>Welcome!</h1><br><p><p>This experiment is adminterested by Carl Michael Galang (McMaster University), Dr. Emiel Cracco (Ghent University), Dr. Marcel Brass (Humboldt University of Berlin), & Dr. Sukhvinder Obhi (McMaster University).</p><p>The purpose of this study is to explore basic perceptual processing mechanisms.</p><p>Information gathered during this study will be written up for publication in an academic journal. While there are no direct benefits to you taking part in this study (other than learning more about the research topic and getting paid on Prolific), the results of this study will provide us with a better understanding of perceptual and sensory processes. To learn about this study, particularly in the terms of any associated risks or harms, how confidentiality and anonymity will be handled, withdrawal procedures, incentives that are promised, how to obtain information about the results, etc., please read the accompanying letter of information - <a href='LOI.pdf' target='_blank'>Click Here</a> (this will open a new window).</p><p>This study should take around 10min to complete.</p><p>If you have questions or need more information about the study itself, please contact me at: galangc@mcmaster.ca. This study has been reviewed by the McMaster University Research Ethics Board and received ethics clearance. If you have concerns or questions about your rights as a participant or about the way the study is conducted, please contact the McMaster Research Ethics Secretariat at ethicsoffice@mcmaster.ca.</p><br><p><h1>CONSENT</h1></p><p>I have read the information presented in the letter of information and I agree to participate in this study.</p><p>By pressing Enter, I consent to the above.<p>","13","","","","","","","","","",""
"survey-html-form","3","22265","0.0-3.0","","8780.044999999518","","","{""1"":""5ebe6d9aad61fb02ea09617f""}","","","","","","","","",""
"fullscreen","4","25056","0.0-4.0","","","","","","true","","","","","","","",""
"call-function","5","25057","0.0-5.0","","","","","","","","","","","","","",""
"html-keyboard-response","6","37488","0.0-6.0","","12430.810000001657","<div class = 'my_window'><h1>Instructions</h1><p>Your task in this experiment is to respond to the letters I or M as they appear on the screen. Unlike most experiments, your task will be to <strong><u>release</u></strong> keys (not push).</p><p>Before each trial starts, please ensure that you keep the <strong><u>V key</u></strong> and <strong><u>B key</u></strong> depressed with your <strong><u>right index finger</u></strong> on the <strong><u>V key</u></strong> and your <strong><u>right middle finger</u></strong> on the <strong><u>B key</u></strong> (see image below). Responses on this experiment will consist of lifting your <strong><u>right index finger</u></strong> to release the <strong><u>V key</u></strong> if you see the letter <strong><u>I</u></strong> or lifting your <strong><u>right middle finger</u></strong> to release the <strong><u>B key</u></strong> if you see the letter <strong><u>M</u></strong> as fast as you can. It is important that you <strong><u>only use your right hand</u></strong> to do the task.</p><p><img src='keyboard_img.png'></p><p>While you complete this task, there will be a couple of hands moving in the background. Ignore them and focus on the task.</p><p>Press ENTER to continue.</p></div>","13","","","","","","","","","",""
"html-keyboard-response","7","40274","0.0-7.0","","2784.6750000026077","<div class = 'my_window'><h1>Practice</h1><p>You will first do a practice phase. In the practice phase, you will get feedback on your performance. The practice phase contains 10 trials, but will add an extra trial every time you respond incorrectly.</p><p><p>Before each trial starts, please ensure that you keep the <strong><u>V key</u></strong> and <strong><u>B key</u></strong> depressed with your <strong><u>right index finger</u></strong> on the <strong><u>V key</u></strong> and your <strong><u>right middle finger</u></strong> on the <strong><u>B key</u></strong> (see image below). Responses on this experiment will consist of lifting your <strong><u>right index finger</u></strong> to release the <strong><u>V key</u></strong> if you see the letter <strong><u>I</u></strong> or lifting your <strong><u>right middle finger</u></strong> to release the <strong><u>B key</u></strong> if you see the letter <strong><u>M</u></strong> as fast as you can. It is important that you <strong><u>only use your right hand</u></strong> to do the task.</p><p><img src='keyboard_img.png'></p><p>While you complete this task, there will be a couple of hands moving in the background. Ignore them and focus on the task.</p><p>This is a reaction time experiment, so please try to respond as fast as possible while at the same time minimizing mistakes.</p><p>Press ENTER to begin.</p></div>","13","","","","","","","","","",""
"fixation-image-keyboard-release-original","631","44993","0.0-8.0-1.0","","469.7149999992689","Stim/Stim-BG/IN_M.PNG","86","","","1","exp","700","1","1","IC","b","false"
"html-keyboard-response","632","46096","0.0-8.0-2.0","","null","<p> INCORRECT </p>","null","","","","","","","","","",""
"fixation-image-keyboard-release-original","633","47387","0.0-8.1-1.1","","288.2099999987986","Stim/Stim-BG/II_I.PNG","66","","","2","exp","700","1","0","C","v","false"
"html-keyboard-response","634","48488","0.0-8.1-2.1","","null","<p> INCORRECT </p>","null","","","","","","","","","",""
"fixation-image-keyboard-release-original","635","49960","0.0-8.2-1.2","","469.7100000012142","Stim/Stim-BG/II_I.PNG","86","","","2","exp","100","1","0","C","v","true"
"html-keyboard-response","636","51063","0.0-8.2-2.2","","null","<p> CORRECT </p>","null","","","","","","","","","",""
"fixation-image-keyboard-release-original","637","52599","0.0-9.0-1.0","","533.3649999993213","Stim/Stim-GB/MN_I.PNG","66","","","1","exp","400","2","0","IC","v","false"
"html-keyboard-response","638","53702","0.0-9.0-2.0","","null","<p> INCORRECT </p>","null","","","","","","","","","",""
"fixation-image-keyboard-release-original","639","55236","0.0-9.1-1.1","","532.0350000001781","Stim/Stim-BG/II_M.PNG","66","","","2","exp","100","1","1","IC","b","true"
"html-keyboard-response","640","56338","0.0-9.1-2.1","","null","<p> CORRECT </p>","null","","","","","","","","","",""
"fixation-image-keyboard-release-original","641","58394","0.0-10.0-1.0","","1054.7150000020338","Stim/Stim-BG/NM_I.PNG","66","","","1","exp","400","2","0","IC","v","false"
"html-keyboard-response","642","59497","0.0-10.0-2.0","","null","<p> INCORRECT </p>","null","","","","","","","","","",""
"fixation-image-keyboard-release-original","892","62324","0.0-10.1-1.1","","539.5800000005693","Stim/Stim-GB/NI_M.PNG","86","","","1","exp","700","1","1","IC","b","false"
"html-keyboard-response","893","63426","0.0-10.1-2.1","","null","<p> INCORRECT </p>","null","","","","","","","","","",""
"fixation-image-keyboard-release-original","916","65182","0.0-10.2-1.2","","648.1050000002142","Stim/Stim-GB/IN_I.PNG","86","","","1","exp","100","1","0","C","v","true"
"html-keyboard-response","917","66284","0.0-10.2-2.2","","null","<p> CORRECT </p>","null","","","","","","","","","",""
"fixation-image-keyboard-release-original","918","67746","0.0-11.0-1.0","","459.26999999937834","Stim/Stim-GB/MM_M.PNG","66","","","2","exp","700","2","1","C","b","true"
"html-keyboard-response","919","68847","0.0-11.0-2.0","","null","<p> CORRECT </p>","null","","","","","","","","","",""
"fixation-image-keyboard-release-original","920","70421","0.0-12.0-1.0","","572.5300000012794","Stim/Stim-BG/II_M.PNG","86","","","2","exp","700","1","1","IC","b","false"
"html-keyboard-response","921","71523","0.0-12.0-2.0","","null","<p> INCORRECT </p>","null","","","","","","","","","",""
"fixation-image-keyboard-release-original","1116","74615","0.0-12.1-1.1","","1082.2550000011688","Stim/Stim-BG/NM_M.PNG","66","","","1","exp","100","2","1","C","b","true"
"html-keyboard-response","1117","75717","0.0-12.1-2.1","","null","<p> CORRECT </p>","null","","","","","","","","","",""
"fixation-image-keyboard-release-original","1118","79408","0.0-13.0-1.0","","2688.415000000532","Stim/Stim-GB/MM_I.PNG","66","","","2","exp","100","2","0","IC","v","false"
"html-keyboard-response","1119","80510","0.0-13.0-2.0","","null","<p> INCORRECT </p>","null","","","","","","","","","",""
"fixation-image-keyboard-release-original","1319","82902","0.0-13.1-1.1","","339.4049999988056","Stim/Stim-BG/MM_M.PNG","66","","","2","exp","400","2","1","C","b","true"
"html-keyboard-response","1320","84005","0.0-13.1-2.1","","null","<p> CORRECT </p>","null","","","","","","","","","",""
"fixation-image-keyboard-release-original","1478","86226","0.0-14.0-1.0","","418.4449999993376","Stim/Stim-GB/II_M.PNG","86","","","2","exp","700","1","1","IC","b","false"
"html-keyboard-response","1479","87328","0.0-14.0-2.0","","null","<p> INCORRECT </p>","null","","","","","","","","","",""
"fixation-image-keyboard-release-original","1480","88655","0.0-14.1-1.1","","324.8700000003737","Stim/Stim-GB/II_I.PNG","86","","","2","exp","400","1","0","C","v","true"
"html-keyboard-response","1481","89758","0.0-14.1-2.1","","null","<p> CORRECT </p>","null","","","","","","","","","",""
"fixation-image-keyboard-release-original","1657","92886","0.0-15.0-1.0","","1223.679999999149","Stim/Stim-BG/II_M.PNG","66","","","2","exp","400","1","1","IC","b","true"
"html-keyboard-response","1658","93989","0.0-15.0-2.0","","null","<p> CORRECT </p>","null","","","","","","","","","",""
"fixation-image-keyboard-release-original","1659","96139","0.0-16.0-1.0","","1148.1949999979406","Stim/Stim-BG/NI_M.PNG","66","","","1","exp","700","1","1","IC","b","true"
"html-keyboard-response","1660","97242","0.0-16.0-2.0","","null","<p> CORRECT </p>","null","","","","","","","","","",""
"fixation-image-keyboard-release-original","1661","99454","0.0-17.0-1.0","","1209.645000002638","Stim/Stim-GB/IN_M.PNG","66","","","1","exp","100","1","1","IC","b","true"
"html-keyboard-response","1662","100555","0.0-17.0-2.0","","null","<p> CORRECT </p>","null","","","","","","","","","",""
"call-function","1663","100556","0.0-18.0","","","","","","","","","","","","","",""
"survey-html-form","1664","108784","0.0-19.0","","8227.405000001454","","","{""hands"":""Right""}","","","","","","","","",""
"html-keyboard-response","1665","115533","0.0-20.0","","6748.854999998002","If you are using <strong><u>just</u></strong> your <strong></u>right hand</u></strong>, then good job! If not, please do so in the main part of the experiment.<br><br>Press Enter to continue","13","","","","","","","","","",""
"html-keyboard-response","1666","178046","0.0-21.0","","62512.69999999931","<div class = 'my_window'><h1>Main Trials</h1><p>Good Job! We will now begin the main trials. In the main trials, you will <strong>not</strong> get feedback. There are 192 trials overall. You will get a self-paced break every 48 trials.</p><p>Instructions Reminder: <p>Before each trial starts, please ensure that you keep the <strong><u>V key</u></strong> and <strong><u>B key</u></strong> depressed with your <strong><u>right index finger</u></strong> on the <strong><u>V key</u></strong> and your <strong><u>right middle finger</u></strong> on the <strong><u>B key</u></strong> (see image below). Responses on this experiment will consist of lifting your <strong><u>right index finger</u></strong> to release the <strong><u>V key</u></strong> if you see the letter <strong><u>I</u></strong> or lifting your <strong><u>right middle finger</u></strong> to release the <strong><u>B key</u></strong> if you see the letter <strong><u>M</u></strong> as fast as you can. It is important that you <strong><u>only use your right hand</u></strong> to do the task.</p><p><img src='keyboard_img.png'></p><p>While you complete this task, there will be a couple of hands moving in the background. Ignore them and focus on the task.</p><p>Remember: this is a reaction time experiment, so please try to respond as fast as possible while at the same time minimizing mistakes.</p><p>Press ENTER to begin.</p></div>","13","","","","","","","","","",""
"call-function","1667","178047","0.0-22.0","","","","","","","","","","","","","",""
"fixation-image-keyboard-release-original","1816","180405","0.0-23.0-1.0","","588.5699999998906","Stim/Stim-GB/II_I.PNG","86","","","2","exp","700","1","0","C","v","true"
"fixation-image-keyboard-release-original","1817","182766","0.0-23.0-1.1","","358.1849999973201","Stim/Stim-GB/II_M.PNG","66","","","2","exp","100","1","1","IC","b","true"
"fixation-image-keyboard-release-original","1818","185348","0.0-23.0-1.2","","579.6200000004319","Stim/Stim-GB/MM_I.PNG","86","","","2","exp","100","2","0","IC","v","true"
"fixation-image-keyboard-release-original","1819","187830","0.0-23.0-1.3","","478.1750000001921","Stim/Stim-GB/IN_I.PNG","86","","","1","exp","700","1","0","C","v","true"
"fixation-image-keyboard-release-original","1820","190464","0.0-23.0-1.4","","630.2949999990233","Stim/Stim-BG/MM_I.PNG","86","","","2","exp","100","2","0","IC","v","true"
"fixation-image-keyboard-release-original","1821","192819","0.0-23.0-1.5","","352.9049999997369","Stim/Stim-BG/II_I.PNG","86","","","2","exp","700","1","0","C","v","true"
"fixation-image-keyboard-release-original","1822","195291","0.0-23.0-1.6","","469.82500000012806","Stim/Stim-GB/MN_M.PNG","66","","","1","exp","100","2","1","C","b","true"
"fixation-image-keyboard-release-original","1823","197704","0.0-23.0-1.7","","410.4650000008405","Stim/Stim-BG/NI_M.PNG","66","","","1","exp","700","1","1","IC","b","true"
"fixation-image-keyboard-release-original","1824","200092","0.0-23.0-1.8","","385.00500000009197","Stim/Stim-BG/II_M.PNG","66","","","2","exp","700","1","1","IC","b","true"
"fixation-image-keyboard-release-original","1825","202489","0.0-23.0-1.9","","395.5150000001595","Stim/Stim-BG/MM_M.PNG","66","","","2","exp","700","2","1","C","b","true"
"fixation-image-keyboard-release-original","1826","205056","0.0-23.0-1.10","","563.479999997071","Stim/Stim-GB/MM_I.PNG","86","","","2","exp","100","2","0","IC","v","true"
"fixation-image-keyboard-release-original","1827","207591","0.0-23.0-1.11","","532.999999999447","Stim/Stim-BG/MN_M.PNG","66","","","1","exp","400","2","1","C","b","true"
"fixation-image-keyboard-release-original","1828","210126","0.0-23.0-1.12","","533.289999999397","Stim/Stim-GB/NM_M.PNG","66","","","1","exp","400","2","1","C","b","true"
"fixation-image-keyboard-release-original","1829","212696","0.0-23.0-1.13","","567.6400000011199","Stim/Stim-BG/NI_M.PNG","66","","","1","exp","700","1","1","IC","b","true"
"fixation-image-keyboard-release-original","1830","215226","0.0-23.0-1.14","","526.8749999995634","Stim/Stim-GB/II_I.PNG","86","","","2","exp","400","1","0","C","v","true"
"fixation-image-keyboard-release-original","1831","217587","0.0-23.0-1.15","","359.04999999911524","Stim/Stim-GB/II_M.PNG","66","","","2","exp","400","1","1","IC","b","true"
"fixation-image-keyboard-release-original","1832","220075","0.0-23.0-1.16","","484.5050000003539","Stim/Stim-GB/II_I.PNG","86","","","2","exp","100","1","0","C","v","true"
"fixation-image-keyboard-release-original","1833","222503","0.0-23.0-1.17","","425.054999999702","Stim/Stim-GB/NM_M.PNG","66","","","1","exp","700","2","1","C","b","true"
"fixation-image-keyboard-release-original","1834","225220","0.0-23.0-1.18","","712.6500000013039","Stim/Stim-GB/IN_M.PNG","66","","","1","exp","700","1","1","IC","b","true"
"fixation-image-keyboard-release-original","1835","227708","0.0-23.0-1.19","","485.90499999772874","Stim/Stim-GB/MN_M.PNG","66","","","1","exp","400","2","1","C","b","true"
"fixation-image-keyboard-release-original","1836","230107","0.0-23.0-1.20","","397.69499999965774","Stim/Stim-GB/NI_M.PNG","66","","","1","exp","400","1","1","IC","b","true"
"fixation-image-keyboard-release-original","1837","232916","0.0-23.0-1.21","","806.0949999999139","Stim/Stim-GB/NI_I.PNG","86","","","1","exp","400","1","0","C","v","true"
"fixation-image-keyboard-release-original","1838","235246","0.0-23.0-1.22","","328.3000000010361","Stim/Stim-GB/NM_M.PNG","66","","","1","exp","100","2","1","C","b","true"
"fixation-image-keyboard-release-original","1839","237739","0.0-23.0-1.23","","491.0100000015518","Stim/Stim-BG/IN_I.PNG","66","","","1","exp","700","1","0","C","v","false"
"fixation-image-keyboard-release-original","1840","240386","0.0-23.0-1.24","","643.370000001596","Stim/Stim-GB/NI_I.PNG","86","","","1","exp","700","1","0","C","v","true"
"fixation-image-keyboard-release-original","1841","242923","0.0-23.0-1.25","","534.2899999996007","Stim/Stim-GB/II_M.PNG","66","","","2","exp","700","1","1","IC","b","true"
"fixation-image-keyboard-release-original","1842","245523","0.0-23.0-1.26","","595.790000003035","Stim/Stim-GB/NM_I.PNG","86","","","1","exp","100","2","0","IC","v","true"
"fixation-image-keyboard-release-original","1843","247939","0.0-23.0-1.27","","413.93999999854714","Stim/Stim-BG/II_M.PNG","86","","","2","exp","400","1","1","IC","b","false"
"fixation-image-keyboard-release-original","1844","250585","0.0-23.0-1.28","","643.0749999999534","Stim/Stim-BG/MN_I.PNG","86","","","1","exp","100","2","0","IC","v","true"
"fixation-image-keyboard-release-original","1979","253988","0.0-23.0-1.29","","713.1850000005215","Stim/Stim-BG/NM_I.PNG","86","","","1","exp","100","2","0","IC","v","true"
"fixation-image-keyboard-release-original","1980","256384","0.0-23.0-1.30","","393.6299999987241","Stim/Stim-GB/MN_M.PNG","66","","","1","exp","700","2","1","C","b","true"
"fixation-image-keyboard-release-original","1981","259094","0.0-23.0-1.31","","706.4649999993271","Stim/Stim-BG/II_M.PNG","66","","","2","exp","100","1","1","IC","b","true"
"fixation-image-keyboard-release-original","1982","261698","0.0-23.0-1.32","","602.6549999988056","Stim/Stim-BG/II_I.PNG","86","","","2","exp","100","1","0","C","v","true"
"fixation-image-keyboard-release-original","1983","264049","0.0-23.0-1.33","","347.6300000002375","Stim/Stim-GB/II_I.PNG","86","","","2","exp","400","1","0","C","v","true"
"fixation-image-keyboard-release-original","1984","266587","0.0-23.0-1.34","","536.3849999994272","Stim/Stim-BG/MM_M.PNG","66","","","2","exp","700","2","1","C","b","true"
"fixation-image-keyboard-release-original","1985","269110","0.0-23.0-1.35","","520.6400000024587","Stim/Stim-BG/NI_I.PNG","86","","","1","exp","700","1","0","C","v","true"
"fixation-image-keyboard-release-original","1986","271492","0.0-23.0-1.36","","378.89999999973224","Stim/Stim-GB/NM_M.PNG","66","","","1","exp","400","2","1","C","b","true"
"fixation-image-keyboard-release-original","1987","274035","0.0-23.0-1.37","","539.5200000020559","Stim/Stim-GB/NI_I.PNG","86","","","1","exp","700","1","0","C","v","true"
"fixation-image-keyboard-release-original","1988","276524","0.0-23.0-1.38","","486.8849999983795","Stim/Stim-BG/NI_I.PNG","86","","","1","exp","100","1","0","C","v","true"
"fixation-image-keyboard-release-original","1989","279008","0.0-23.0-1.39","","481.2950000013807","Stim/Stim-BG/II_I.PNG","86","","","2","exp","100","1","0","C","v","true"
"fixation-image-keyboard-release-original","1990","281354","0.0-23.0-1.40","","342.62999999918975","Stim/Stim-GB/NI_M.PNG","66","","","1","exp","700","1","1","IC","b","true"
"fixation-image-keyboard-release-original","1991","283818","0.0-23.0-1.41","","459.9799999996321","Stim/Stim-BG/II_M.PNG","66","","","2","exp","400","1","1","IC","b","true"
"fixation-image-keyboard-release-original","1992","286412","0.0-23.0-1.42","","590.3300000027521","Stim/Stim-BG/MM_I.PNG","86","","","2","exp","400","2","0","IC","v","true"
"fixation-image-keyboard-release-original","1993","289050","0.0-23.0-1.43","","634.7449999994133","Stim/Stim-GB/II_M.PNG","66","","","2","exp","100","1","1","IC","b","true"
"fixation-image-keyboard-release-original","1994","291554","0.0-23.0-1.44","","501.51999999798136","Stim/Stim-BG/II_I.PNG","86","","","2","exp","400","1","0","C","v","true"
"fixation-image-keyboard-release-original","1995","293893","0.0-23.0-1.45","","336.7500000022119","Stim/Stim-GB/II_M.PNG","66","","","2","exp","700","1","1","IC","b","true"
"fixation-image-keyboard-release-original","1996","296262","0.0-23.0-1.46","","366.65999999968335","Stim/Stim-GB/II_M.PNG","66","","","2","exp","400","1","1","IC","b","true"
"fixation-image-keyboard-release-original","1997","298637","0.0-23.0-1.47","","373.665000002773","Stim/Stim-BG/MM_M.PNG","66","","","2","exp","100","2","1","C","b","true"
"html-keyboard-response","1998","552035","0.0-23.0-2.47-0.47","","252397.34500000125","Take a break. Feel free to start again by pressing Enter.","13","","","","","","","","","",""
"fixation-image-keyboard-release-original","2199","554564","0.0-23.0-1.48","","508.15000000142027","Stim/Stim-BG/IN_I.PNG","86","","","1","exp","400","1","0","C","v","true"
"fixation-image-keyboard-release-original","2200","556865","0.0-23.0-1.49","","298.4599999982165","Stim/Stim-BG/II_I.PNG","66","","","2","exp","400","1","0","C","v","false"
"fixation-image-keyboard-release-original","2201","559335","0.0-23.0-1.50","","468.014999998617","Stim/Stim-GB/MM_M.PNG","66","","","2","exp","100","2","1","C","b","true"
"fixation-image-keyboard-release-original","2202","561668","0.0-23.0-1.51","","331.27999999851454","Stim/Stim-GB/IN_I.PNG","86","","","1","exp","100","1","0","C","v","true"
"fixation-image-keyboard-release-original","2203","564232","0.0-23.0-1.52","","559.6949999999488","Stim/Stim-BG/NI_M.PNG","66","","","1","exp","100","1","1","IC","b","true"
"fixation-image-keyboard-release-original","2204","566659","0.0-23.0-1.53","","422.2799999988638","Stim/Stim-GB/IN_M.PNG","66","","","1","exp","100","1","1","IC","b","true"
"fixation-image-keyboard-release-original","2205","569132","0.0-23.0-1.54","","470.0650000013411","Stim/Stim-GB/II_I.PNG","86","","","2","exp","700","1","0","C","v","true"
"fixation-image-keyboard-release-original","2206","571698","0.0-23.0-1.55","","563.2199999999721","Stim/Stim-GB/NI_M.PNG","66","","","1","exp","100","1","1","IC","b","true"
"fixation-image-keyboard-release-original","2207","574253","0.0-23.0-1.56","","552.224999999511","Stim/Stim-BG/MM_I.PNG","86","","","2","exp","700","2","0","IC","v","true"
"fixation-image-keyboard-release-original","2208","576718","0.0-23.0-1.57","","461.11000000021886","Stim/Stim-GB/II_I.PNG","86","","","2","exp","100","1","0","C","v","true"
"fixation-image-keyboard-release-original","2209","579314","0.0-23.0-1.58","","593.625000001397","Stim/Stim-GB/NI_I.PNG","86","","","1","exp","400","1","0","C","v","true"
"fixation-image-keyboard-release-original","2210","581960","0.0-23.0-1.59","","641.6549999994459","Stim/Stim-GB/NI_M.PNG","66","","","1","exp","400","1","1","IC","b","true"
"fixation-image-keyboard-release-original","2211","584525","0.0-23.0-1.60","","562.3500000000931","Stim/Stim-GB/MM_I.PNG","86","","","2","exp","700","2","0","IC","v","true"
"fixation-image-keyboard-release-original","2212","587049","0.0-23.0-1.61","","521.5400000015507","Stim/Stim-GB/II_I.PNG","86","","","2","exp","100","1","0","C","v","true"
"fixation-image-keyboard-release-original","2213","589754","0.0-23.0-1.62","","703.1199999982491","Stim/Stim-BG/II_M.PNG","66","","","2","exp","400","1","1","IC","b","true"
"fixation-image-keyboard-release-original","2214","592591","0.0-23.0-1.63","","833.5850000004284","Stim/Stim-BG/NM_I.PNG","86","","","1","exp","700","2","0","IC","v","true"
"fixation-image-keyboard-release-original","2215","594982","0.0-23.0-1.64","","388.56000000296626","Stim/Stim-GB/NI_I.PNG","86","","","1","exp","100","1","0","C","v","true"
"fixation-image-keyboard-release-original","2216","597360","0.0-23.0-1.65","","375.3800000012852","Stim/Stim-BG/IN_I.PNG","86","","","1","exp","100","1","0","C","v","true"
"fixation-image-keyboard-release-original","2217","599738","0.0-23.0-1.66","","377.03999999933876","Stim/Stim-BG/IN_M.PNG","86","","","1","exp","400","1","1","IC","b","false"
"fixation-image-keyboard-release-original","2259","602449","0.0-23.0-1.67","","512.1399999989662","Stim/Stim-GB/MN_M.PNG","66","","","1","exp","400","2","1","C","b","true"
"fixation-image-keyboard-release-original","2260","604833","0.0-23.0-1.68","","379.50500000070315","Stim/Stim-GB/MM_M.PNG","66","","","2","exp","400","2","1","C","b","true"
"fixation-image-keyboard-release-original","2261","607850","0.0-23.0-1.69","","1015.0199999988545","Stim/Stim-GB/NI_M.PNG","66","","","1","exp","100","1","1","IC","b","true"
"fixation-image-keyboard-release-original","2262","610206","0.0-23.0-1.70","","353.790000001085","Stim/Stim-BG/MM_M.PNG","66","","","2","exp","400","2","1","C","b","true"
"fixation-image-keyboard-release-original","2263","612522","0.0-23.0-1.71","","313.7249999999767","Stim/Stim-GB/II_M.PNG","66","","","2","exp","400","1","1","IC","b","true"
"fixation-image-keyboard-release-original","2264","614846","0.0-23.0-1.72","","321.9600000011269","Stim/Stim-GB/MM_M.PNG","66","","","2","exp","700","2","1","C","b","true"
"fixation-image-keyboard-release-original","2265","617380","0.0-23.0-1.73","","532.5250000023516","Stim/Stim-BG/IN_I.PNG","86","","","1","exp","700","1","0","C","v","true"
"fixation-image-keyboard-release-original","2266","619975","0.0-23.0-1.74","","592.5349999996834","Stim/Stim-GB/IN_I.PNG","86","","","1","exp","100","1","0","C","v","true"
"fixation-image-keyboard-release-original","2267","622332","0.0-23.0-1.75","","353.84500000148546","Stim/Stim-GB/IN_I.PNG","86","","","1","exp","400","1","0","C","v","true"
"fixation-image-keyboard-release-original","2370","625458","0.0-23.0-1.76","","597.3699999995297","Stim/Stim-GB/NI_I.PNG","86","","","1","exp","100","1","0","C","v","true"
"fixation-image-keyboard-release-original","2371","627947","0.0-23.0-1.77","","487.82999999821186","Stim/Stim-BG/II_I.PNG","86","","","2","exp","700","1","0","C","v","true"
"fixation-image-keyboard-release-original","2372","630348","0.0-23.0-1.78","","399.66500000085216","Stim/Stim-GB/NM_I.PNG","86","","","1","exp","700","2","0","IC","v","true"
"fixation-image-keyboard-release-original","2373","632681","0.0-23.0-1.79","","331.06499999854714","Stim/Stim-GB/MM_M.PNG","86","","","2","exp","700","2","1","C","b","false"
"fixation-image-keyboard-release-original","2374","635018","0.0-23.0-1.80","","334.340000001248","Stim/Stim-BG/II_M.PNG","66","","","2","exp","100","1","1","IC","b","true"
"fixation-image-keyboard-release-original","2375","637381","0.0-23.0-1.81","","360.1200000012759","Stim/Stim-GB/II_M.PNG","66","","","2","exp","100","1","1","IC","b","true"
"fixation-image-keyboard-release-original","2376","639786","0.0-23.0-1.82","","402.1900000006426","Stim/Stim-BG/NM_I.PNG","66","","","1","exp","700","2","0","IC","v","false"
"fixation-image-keyboard-release-original","2377","642409","0.0-23.0-1.83","","621.6999999997206","Stim/Stim-GB/MM_M.PNG","66","","","2","exp","100","2","1","C","b","true"
"fixation-image-keyboard-release-original","2378","644963","0.0-23.0-1.84","","550.0250000003725","Stim/Stim-GB/IN_I.PNG","86","","","1","exp","400","1","0","C","v","true"
"fixation-image-keyboard-release-original","2379","647524","0.0-23.0-1.85","","558.744999998482","Stim/Stim-BG/MM_M.PNG","66","","","2","exp","100","2","1","C","b","true"
"fixation-image-keyboard-release-original","2380","650146","0.0-23.0-1.86","","620.3800000003539","Stim/Stim-GB/MN_I.PNG","86","","","1","exp","100","2","0","IC","v","true"
"fixation-image-keyboard-release-original","2381","652649","0.0-23.0-1.87","","499.7449999973178","Stim/Stim-GB/II_I.PNG","86","","","2","exp","400","1","0","C","v","true"
"fixation-image-keyboard-release-original","2382","655238","0.0-23.0-1.88","","585.6950000015786","Stim/Stim-BG/MM_M.PNG","66","","","2","exp","400","2","1","C","b","true"
"fixation-image-keyboard-release-original","2383","657736","0.0-23.0-1.89","","495.49000000115484","Stim/Stim-GB/MN_M.PNG","66","","","1","exp","700","2","1","C","b","true"
"fixation-image-keyboard-release-original","2384","660672","0.0-23.0-1.90","","933.6349999975646","Stim/Stim-GB/MN_I.PNG","86","","","1","exp","100","2","0","IC","v","true"
"fixation-image-keyboard-release-original","2385","663369","0.0-23.0-1.91","","694.420000003418","Stim/Stim-GB/NM_M.PNG","66","","","1","exp","700","2","1","C","b","true"
"fixation-image-keyboard-release-original","2386","666645","0.0-23.0-1.92","","1273.2849999992177","Stim/Stim-BG/IN_M.PNG","66","","","1","exp","100","1","1","IC","b","true"
"fixation-image-keyboard-release-original","2387","669174","0.0-23.0-1.93","","527.3300000008894","Stim/Stim-BG/MM_M.PNG","66","","","2","exp","100","2","1","C","b","true"
"fixation-image-keyboard-release-original","2388","671673","0.0-23.0-1.94","","495.92000000120606","Stim/Stim-GB/MM_M.PNG","66","","","2","exp","700","2","1","C","b","true"
"fixation-image-keyboard-release-original","2389","674271","0.0-23.0-1.95","","594.3799999987241","Stim/Stim-GB/II_M.PNG","66","","","2","exp","700","1","1","IC","b","true"
"html-keyboard-response","2390","677400","0.0-23.0-2.95-0.95","","2127.8449999990407","Take a break. Feel free to start again by pressing Enter.","13","","","","","","","","","",""
"fixation-image-keyboard-release-original","2391","678839","0.0-23.0-1.96","","436.0449999985285","Stim/Stim-GB/NM_I.PNG","86","","","1","exp","400","2","0","IC","v","true"
"fixation-image-keyboard-release-original","2392","681301","0.0-23.0-1.97","","461.0900000006659","Stim/Stim-BG/NI_I.PNG","86","","","1","exp","100","1","0","C","v","true"
"fixation-image-keyboard-release-original","2393","683826","0.0-23.0-1.98","","522.1750000017928","Stim/Stim-BG/NM_M.PNG","66","","","1","exp","100","2","1","C","b","true"
"fixation-image-keyboard-release-original","2394","686296","0.0-23.0-1.99","","468.28000000095926","Stim/Stim-GB/IN_M.PNG","66","","","1","exp","700","1","1","IC","b","true"
"fixation-image-keyboard-release-original","2395","688779","0.0-23.0-1.100","","480.364999999525","Stim/Stim-BG/IN_M.PNG","66","","","1","exp","400","1","1","IC","b","true"
"fixation-image-keyboard-release-original","2396","691251","0.0-23.0-1.101","","469.90999999979977","Stim/Stim-GB/MM_M.PNG","66","","","2","exp","100","2","1","C","b","true"
"fixation-image-keyboard-release-original","2397","693671","0.0-23.0-1.102","","417.58999999728985","Stim/Stim-BG/NI_M.PNG","66","","","1","exp","400","1","1","IC","b","true"
"fixation-image-keyboard-release-original","2398","696255","0.0-23.0-1.103","","579.2399999990594","Stim/Stim-BG/MN_I.PNG","86","","","1","exp","400","2","0","IC","v","true"
"fixation-image-keyboard-release-original","2399","698804","0.0-23.0-1.104","","546.8049999981886","Stim/Stim-BG/II_I.PNG","86","","","2","exp","400","1","0","C","v","true"
"fixation-image-keyboard-release-original","2400","701497","0.0-23.0-1.105","","691.1650000001537","Stim/Stim-BG/MN_M.PNG","66","","","1","exp","100","2","1","C","b","true"
"fixation-image-keyboard-release-original","2401","703946","0.0-23.0-1.106","","446.46000000287313","Stim/Stim-GB/MM_M.PNG","66","","","2","exp","700","2","1","C","b","true"
"fixation-image-keyboard-release-original","2402","706583","0.0-23.0-1.107","","633.5099999995437","Stim/Stim-BG/MM_I.PNG","86","","","2","exp","700","2","0","IC","v","true"
"fixation-image-keyboard-release-original","2403","708983","0.0-23.0-1.108","","398.195000001695","Stim/Stim-BG/MM_I.PNG","86","","","2","exp","400","2","0","IC","v","true"
"fixation-image-keyboard-release-original","2404","711695","0.0-23.0-1.109","","708.535000001546","Stim/Stim-BG/NI_M.PNG","66","","","1","exp","400","1","1","IC","b","true"
"fixation-image-keyboard-release-original","2405","714365","0.0-23.0-1.110","","668.1600000010803","Stim/Stim-GB/II_M.PNG","66","","","2","exp","700","1","1","IC","b","true"
"fixation-image-keyboard-release-original","2406","717301","0.0-23.0-1.111","","932.94999999844","Stim/Stim-BG/MM_I.PNG","86","","","2","exp","100","2","0","IC","v","true"
"fixation-image-keyboard-release-original","2407","719803","0.0-23.0-1.112","","497.68000000040047","Stim/Stim-BG/NI_I.PNG","86","","","1","exp","400","1","0","C","v","true"
"fixation-image-keyboard-release-original","2536","723116","0.0-23.0-1.113","","658.2199999974109","Stim/Stim-BG/II_I.PNG","86","","","2","exp","400","1","0","C","v","true"
"fixation-image-keyboard-release-original","2537","725943","0.0-23.0-1.114","","822.4350000019185","Stim/Stim-BG/MM_I.PNG","86","","","2","exp","400","2","0","IC","v","true"
"fixation-image-keyboard-release-original","2538","728424","0.0-23.0-1.115","","478.7849999993341","Stim/Stim-BG/MM_I.PNG","86","","","2","exp","100","2","0","IC","v","true"
"fixation-image-keyboard-release-original","2539","730916","0.0-23.0-1.116","","488.88000000081956","Stim/Stim-BG/NI_I.PNG","86","","","1","exp","700","1","0","C","v","true"
"fixation-image-keyboard-release-original","2540","733323","0.0-23.0-1.117","","404.3299999976298","Stim/Stim-GB/MM_I.PNG","86","","","2","exp","400","2","0","IC","v","true"
"fixation-image-keyboard-release-original","2541","735690","0.0-23.0-1.118","","365.0950000010198","Stim/Stim-BG/IN_M.PNG","86","","","1","exp","700","1","1","IC","b","false"
"fixation-image-keyboard-release-original","2542","738231","0.0-23.0-1.119","","538.8449999991572","Stim/Stim-GB/MM_I.PNG","86","","","2","exp","100","2","0","IC","v","true"
"fixation-image-keyboard-release-original","2543","740853","0.0-23.0-1.120","","619.4499999983236","Stim/Stim-GB/MN_I.PNG","86","","","1","exp","400","2","0","IC","v","true"
"fixation-image-keyboard-release-original","2544","743536","0.0-23.0-1.121","","680.7300000000978","Stim/Stim-BG/NM_M.PNG","66","","","1","exp","700","2","1","C","b","true"
"fixation-image-keyboard-release-original","2545","746490","0.0-23.0-1.122","","951.1249999996508","Stim/Stim-BG/NM_I.PNG","86","","","1","exp","400","2","0","IC","v","true"
"fixation-image-keyboard-release-original","2546","749152","0.0-23.0-1.123","","657.0150000007125","Stim/Stim-BG/IN_M.PNG","66","","","1","exp","700","1","1","IC","b","true"
"fixation-image-keyboard-release-original","2547","751695","0.0-23.0-1.124","","541.6850000000559","Stim/Stim-BG/MM_I.PNG","86","","","2","exp","700","2","0","IC","v","true"
"fixation-image-keyboard-release-original","2548","754336","0.0-23.0-1.125","","636.0600000007544","Stim/Stim-BG/MN_M.PNG","66","","","1","exp","100","2","1","C","b","true"
"fixation-image-keyboard-release-original","2549","756917","0.0-23.0-1.126","","579.4399999977322","Stim/Stim-BG/IN_I.PNG","86","","","1","exp","100","1","0","C","v","true"
"fixation-image-keyboard-release-original","2550","759623","0.0-23.0-1.127","","702.1200000017416","Stim/Stim-GB/II_I.PNG","86","","","2","exp","700","1","0","C","v","true"
"fixation-image-keyboard-release-original","2551","762274","0.0-23.0-1.128","","647.9099999996834","Stim/Stim-GB/MM_I.PNG","86","","","2","exp","400","2","0","IC","v","true"
"fixation-image-keyboard-release-original","2552","764883","0.0-23.0-1.129","","606.4350000015693","Stim/Stim-BG/NM_M.PNG","66","","","1","exp","400","2","1","C","b","true"
"fixation-image-keyboard-release-original","2553","767535","0.0-23.0-1.130","","649.0999999986961","Stim/Stim-BG/II_M.PNG","66","","","2","exp","400","1","1","IC","b","true"
"fixation-image-keyboard-release-original","2554","770117","0.0-23.0-1.131","","579.9950000001118","Stim/Stim-GB/II_I.PNG","86","","","2","exp","100","1","0","C","v","true"
"fixation-image-keyboard-release-original","2555","772751","0.0-23.0-1.132","","631.9950000033714","Stim/Stim-GB/II_I.PNG","86","","","2","exp","700","1","0","C","v","true"
"fixation-image-keyboard-release-original","2556","775306","0.0-23.0-1.133","","552.8149999991292","Stim/Stim-BG/II_I.PNG","86","","","2","exp","100","1","0","C","v","true"
"fixation-image-keyboard-release-original","2557","777908","0.0-23.0-1.134","","598.6450000018813","Stim/Stim-BG/NI_M.PNG","66","","","1","exp","100","1","1","IC","b","true"
"fixation-image-keyboard-release-original","2558","780605","0.0-23.0-1.135","","694.5750000013504","Stim/Stim-BG/NI_I.PNG","86","","","1","exp","400","1","0","C","v","true"
"fixation-image-keyboard-release-original","2559","783151","0.0-23.0-1.136","","544.1649999993388","Stim/Stim-BG/NM_I.PNG","86","","","1","exp","400","2","0","IC","v","true"
"fixation-image-keyboard-release-original","2560","785877","0.0-23.0-1.137","","723.1649999994552","Stim/Stim-BG/MM_M.PNG","66","","","2","exp","100","2","1","C","b","true"
"fixation-image-keyboard-release-original","2663","789113","0.0-23.0-1.138","","726.4250000007451","Stim/Stim-BG/NM_I.PNG","86","","","1","exp","100","2","0","IC","v","true"
"fixation-image-keyboard-release-original","2664","791650","0.0-23.0-1.139","","534.1049999988172","Stim/Stim-GB/NM_I.PNG","86","","","1","exp","700","2","0","IC","v","true"
"fixation-image-keyboard-release-original","2665","794438","0.0-23.0-1.140","","785.2600000005914","Stim/Stim-BG/NM_M.PNG","66","","","1","exp","100","2","1","C","b","true"
"fixation-image-keyboard-release-original","2666","796834","0.0-23.0-1.141","","393.29499999806285","Stim/Stim-BG/II_I.PNG","86","","","2","exp","100","1","0","C","v","true"
"fixation-image-keyboard-release-original","2667","799918","0.0-23.0-1.142","","1082.170000001439","Stim/Stim-GB/MM_I.PNG","86","","","2","exp","400","2","0","IC","v","true"
"fixation-image-keyboard-release-original","2668","802514","0.0-23.0-1.143","","593.7599999997765","Stim/Stim-BG/IN_I.PNG","86","","","1","exp","400","1","0","C","v","true"
"html-keyboard-response","2669","805356","0.0-23.0-2.143-0.143","","1840.1100000009174","Take a break. Feel free to start again by pressing Enter.","13","","","","","","","","","",""
"fixation-image-keyboard-release-original","2670","806823","0.0-23.0-1.144","","465.11000000103377","Stim/Stim-BG/MN_I.PNG","86","","","1","exp","100","2","0","IC","v","true"
"fixation-image-keyboard-release-original","2671","809306","0.0-23.0-1.145","","479.19999999785796","Stim/Stim-BG/II_I.PNG","86","","","2","exp","700","1","0","C","v","true"
"fixation-image-keyboard-release-original","2672","811665","0.0-23.0-1.146","","356.8599999998696","Stim/Stim-GB/MM_I.PNG","86","","","2","exp","700","2","0","IC","v","true"
"fixation-image-keyboard-release-original","2673","814286","0.0-23.0-1.147","","619.2449999980163","Stim/Stim-BG/II_M.PNG","66","","","2","exp","100","1","1","IC","b","true"
"fixation-image-keyboard-release-original","2674","816790","0.0-23.0-1.148","","502.1949999972712","Stim/Stim-BG/MM_M.PNG","66","","","2","exp","400","2","1","C","b","true"
"fixation-image-keyboard-release-original","2675","819399","0.0-23.0-1.149","","604.3250000003027","Stim/Stim-GB/MM_I.PNG","86","","","2","exp","400","2","0","IC","v","true"
"fixation-image-keyboard-release-original","2676","821953","0.0-23.0-1.150","","550.4299999993527","Stim/Stim-GB/MM_M.PNG","66","","","2","exp","400","2","1","C","b","true"
"fixation-image-keyboard-release-original","2677","824741","0.0-23.0-1.151","","785.3699999977835","Stim/Stim-BG/MM_I.PNG","86","","","2","exp","700","2","0","IC","v","true"
"fixation-image-keyboard-release-original","2678","827270","0.0-23.0-1.152","","525.770000000135","Stim/Stim-GB/NM_I.PNG","86","","","1","exp","400","2","0","IC","v","true"
"fixation-image-keyboard-release-original","2679","829874","0.0-23.0-1.153","","599.5849999999627","Stim/Stim-BG/NM_M.PNG","66","","","1","exp","700","2","1","C","b","true"
"fixation-image-keyboard-release-original","2680","832423","0.0-23.0-1.154","","545.7249999999767","Stim/Stim-BG/MM_I.PNG","86","","","2","exp","400","2","0","IC","v","true"
"fixation-image-keyboard-release-original","2681","834988","0.0-23.0-1.155","","562.0699999999488","Stim/Stim-GB/MN_I.PNG","86","","","1","exp","400","2","0","IC","v","true"
"fixation-image-keyboard-release-original","2682","837360","0.0-23.0-1.156","","367.89000000129454","Stim/Stim-BG/II_M.PNG","86","","","2","exp","700","1","1","IC","b","false"
"fixation-image-keyboard-release-original","2683","839924","0.0-23.0-1.157","","561.0449999985285","Stim/Stim-GB/NM_I.PNG","86","","","1","exp","100","2","0","IC","v","true"
"fixation-image-keyboard-release-original","2684","842573","0.0-23.0-1.158","","645.1300000008196","Stim/Stim-BG/MN_M.PNG","66","","","1","exp","700","2","1","C","b","true"
"fixation-image-keyboard-release-original","2685","845213","0.0-23.0-1.159","","636.734999999986","Stim/Stim-BG/MM_I.PNG","86","","","2","exp","100","2","0","IC","v","true"
"fixation-image-keyboard-release-original","2686","847942","0.0-23.0-1.160","","726.1800000014482","Stim/Stim-BG/MM_M.PNG","66","","","2","exp","700","2","1","C","b","true"
"fixation-image-keyboard-release-original","2687","850439","0.0-23.0-1.161","","494.9899999991758","Stim/Stim-BG/MN_M.PNG","66","","","1","exp","400","2","1","C","b","true"
"fixation-image-keyboard-release-original","2688","852816","0.0-23.0-1.162","","373.78499999979977","Stim/Stim-GB/II_M.PNG","66","","","2","exp","400","1","1","IC","b","true"
"fixation-image-keyboard-release-original","2689","855200","0.0-23.0-1.163","","380.0599999994738","Stim/Stim-BG/MN_M.PNG","66","","","1","exp","700","2","1","C","b","true"
"fixation-image-keyboard-release-original","2690","857664","0.0-23.0-1.164","","462.7050000017043","Stim/Stim-GB/IN_M.PNG","66","","","1","exp","400","1","1","IC","b","true"
"fixation-image-keyboard-release-original","2691","860185","0.0-23.0-1.165","","518.9749999991618","Stim/Stim-BG/II_I.PNG","86","","","2","exp","700","1","0","C","v","true"
"fixation-image-keyboard-release-original","2692","862837","0.0-23.0-1.166","","649.2199999992736","Stim/Stim-GB/MM_I.PNG","86","","","2","exp","100","2","0","IC","v","true"
"fixation-image-keyboard-release-original","2693","865374","0.0-23.0-1.167","","533.4849999998696","Stim/Stim-GB/MM_M.PNG","66","","","2","exp","400","2","1","C","b","true"
"fixation-image-keyboard-release-original","2694","868027","0.0-23.0-1.168","","648.4549999985611","Stim/Stim-GB/MN_M.PNG","66","","","1","exp","100","2","1","C","b","true"
"fixation-image-keyboard-release-original","2695","871034","0.0-23.0-1.169","","1004.9099999996834","Stim/Stim-GB/NM_M.PNG","66","","","1","exp","100","2","1","C","b","true"
"fixation-image-keyboard-release-original","2742","874129","0.0-23.0-1.170","","861.2900000007357","Stim/Stim-BG/MN_I.PNG","86","","","1","exp","400","2","0","IC","v","true"
"fixation-image-keyboard-release-original","2743","876867","0.0-23.0-1.171","","735.7799999989802","Stim/Stim-BG/IN_M.PNG","66","","","1","exp","100","1","1","IC","b","true"
"fixation-image-keyboard-release-original","2744","880566","0.0-23.0-1.172","","1695.4899999982445","Stim/Stim-BG/II_M.PNG","66","","","2","exp","100","1","1","IC","b","true"
"fixation-image-keyboard-release-original","2745","883265","0.0-23.0-1.173","","696.3749999995343","Stim/Stim-GB/IN_M.PNG","66","","","1","exp","400","1","1","IC","b","true"
"fixation-image-keyboard-release-original","2746","885876","0.0-23.0-1.174","","609.5200000017649","Stim/Stim-BG/MM_M.PNG","66","","","2","exp","700","2","1","C","b","true"
"fixation-image-keyboard-release-original","2747","888640","0.0-23.0-1.175","","761.5200000000186","Stim/Stim-GB/MN_I.PNG","86","","","1","exp","700","2","0","IC","v","true"
"fixation-image-keyboard-release-original","2748","891138","0.0-23.0-1.176","","495.8900000018766","Stim/Stim-GB/MM_M.PNG","66","","","2","exp","400","2","1","C","b","true"
"fixation-image-keyboard-release-original","2749","893659","0.0-23.0-1.177","","519.3650000001071","Stim/Stim-BG/MM_M.PNG","66","","","2","exp","400","2","1","C","b","true"
"fixation-image-keyboard-release-original","2750","896097","0.0-23.0-1.178","","436.34499999834225","Stim/Stim-BG/II_M.PNG","66","","","2","exp","700","1","1","IC","b","true"
"fixation-image-keyboard-release-original","2751","898532","0.0-23.0-1.179","","434.1600000007311","Stim/Stim-GB/MM_M.PNG","66","","","2","exp","100","2","1","C","b","true"
"fixation-image-keyboard-release-original","2752","900973","0.0-23.0-1.180","","436.15000000142027","Stim/Stim-GB/IN_I.PNG","66","","","1","exp","700","1","0","C","v","false"
"fixation-image-keyboard-release-original","2753","903472","0.0-23.0-1.181","","495.5249999985099","Stim/Stim-BG/II_M.PNG","66","","","2","exp","700","1","1","IC","b","true"
"fixation-image-keyboard-release-original","2754","905954","0.0-23.0-1.182","","479.4350000011036","Stim/Stim-GB/II_I.PNG","86","","","2","exp","400","1","0","C","v","true"
"fixation-image-keyboard-release-original","2755","908522","0.0-23.0-1.183","","564.8199999995995","Stim/Stim-GB/MM_I.PNG","86","","","2","exp","700","2","0","IC","v","true"
"fixation-image-keyboard-release-original","2756","910996","0.0-23.0-1.184","","471.6850000004051","Stim/Stim-GB/MN_I.PNG","86","","","1","exp","700","2","0","IC","v","true"
"fixation-image-keyboard-release-original","2757","913438","0.0-23.0-1.185","","438.900000001071","Stim/Stim-BG/MN_I.PNG","86","","","1","exp","700","2","0","IC","v","true"
"fixation-image-keyboard-release-original","2758","915939","0.0-23.0-1.186","","497.55499999807216","Stim/Stim-BG/MN_I.PNG","86","","","1","exp","700","2","0","IC","v","true"
"fixation-image-keyboard-release-original","2759","918430","0.0-23.0-1.187","","489.01000000117347","Stim/Stim-GB/MM_I.PNG","86","","","2","exp","700","2","0","IC","v","true"
"fixation-image-keyboard-release-original","2760","920985","0.0-23.0-1.188","","551.9500000010012","Stim/Stim-GB/NI_M.PNG","66","","","1","exp","700","1","1","IC","b","true"
"fixation-image-keyboard-release-original","2761","923357","0.0-23.0-1.189","","370.39999999979045","Stim/Stim-GB/II_M.PNG","66","","","2","exp","100","1","1","IC","b","true"
"fixation-image-keyboard-release-original","2762","925702","0.0-23.0-1.190","","343.11499999975786","Stim/Stim-GB/IN_M.PNG","66","","","1","exp","100","1","1","IC","b","true"
"fixation-image-keyboard-release-original","2763","928110","0.0-23.0-1.191","","405.53000000002794","Stim/Stim-BG/NM_M.PNG","66","","","1","exp","400","2","1","C","b","true"
"call-function","2764","929112","0.0-24.0","","","","","","","","","","","","","",""
"survey-html-form","2765","933315","0.0-25.0","","4202.910000000033","","","{""hands2"":""Right""}","","","","","","","","",""
"html-keyboard-response","2766","953912","0.0-26.0","","20595.88000000082","<p><h1>This is the end of the experiment.</h1></p><p>Please <a href='Debrief.pdf' target='_blank'>Click Here</a> (this will open a new window) to read more about the study.</p><p>Press ENTER to end the experiment (you will be sent to Prolific - if something goes wrong, the completion code for this study is: 3F11CBBF).</p>","13","","","","","","","","","",""
"pavlovia","2767","953919","0.0-27.0","","","","","","","","","","","","","",""
